Subject,Session,Trial,GainLoss,Information,RT,Confidence,Correct,Project
1,1,1,-1,1,530,0.55,1,1
2,1,1,-1,1,861,0.5,1,1
3,1,1,-1,1,400,0.5,0,1
4,1,1,-1,1,584,0.85,0,1
5,1,1,-1,1,527,0.5,0,1
6,1,1,-1,1,907,0.5,1,1
7,1,1,-1,1,369,0.5,1,1
8,1,1,-1,1,543,0.7,0,1
9,1,1,-1,1,601,0.5,0,1
10,1,1,-1,1,497,0.55,0,1
11,1,1,-1,1,433,0.65,1,1
12,1,1,-1,1,433,0.5,1,1
13,1,1,-1,1,2576,0.7,1,-1
14,1,1,-1,1,2750,0.5,0,-1
15,1,1,-1,1,2701,0.5,0,-1
16,1,1,-1,1,2827,0.7,0,-1
17,1,1,-1,1,707,0.75,0,-1
18,1,1,-1,1,1423,0.85,1,-1
19,1,1,-1,1,1538,0.6,1,-1
20,1,1,-1,1,NaN,0.6,NaN,-1
21,1,1,-1,1,1512,0.5,1,-1
22,1,1,-1,1,1217,0.5,1,-1
23,1,1,-1,1,2395,0.5,1,-1
24,1,1,-1,1,592,0.8,0,-1
25,1,1,-1,1,1805,0.5,0,-1
26,1,1,-1,1,2952,0.5,0,-1
27,1,1,-1,1,2025,0.5,0,-1
28,1,1,-1,1,NaN,0.5,NaN,-1
29,1,1,-1,1,511,0.5,1,-1
30,1,1,-1,1,1094,0.65,1,-1
1,2,1,-1,1,378,0.55,1,1
2,2,1,-1,1,710,0.5,0,1
3,2,1,-1,1,503,0.5,0,1
4,2,1,-1,1,462,0.55,0,1
5,2,1,-1,1,763,0.5,1,1
6,2,1,-1,1,492,0.75,1,1
7,2,1,-1,1,551,0.5,1,1
8,2,1,-1,1,473,0.65,0,1
9,2,1,-1,1,573,0.5,0,1
10,2,1,-1,1,670,0.5,1,1
11,2,1,-1,1,526,0.8,1,1
12,2,1,-1,1,624,0.5,1,1
13,2,1,-1,1,2399,0.5,1,-1
14,2,1,-1,1,851,0.5,0,-1
15,2,1,-1,1,1886,0.5,1,-1
16,2,1,-1,1,2857,0.65,0,-1
17,2,1,-1,1,1479,0.85,0,-1
18,2,1,-1,1,1386,0.65,1,-1
19,2,1,-1,1,1614,0.7,0,-1
20,2,1,-1,1,898,0.7,1,-1
21,2,1,-1,1,959,0.5,0,-1
22,2,1,-1,1,1894,0.5,0,-1
23,2,1,-1,1,1350,0.5,0,-1
24,2,1,-1,1,1087,0.5,0,-1
25,2,1,-1,1,2211,0.5,0,-1
26,2,1,-1,1,1853,0.5,1,-1
27,2,1,-1,1,1359,0.5,0,-1
28,2,1,-1,1,1420,0.5,0,-1
29,2,1,-1,1,1029,0.5,0,-1
30,2,1,-1,1,953,0.85,0,-1
1,3,1,-1,1,398,0.5,1,1
2,3,1,-1,1,651,0.5,1,1
3,3,1,-1,1,387,0.5,0,1
4,3,1,-1,1,480,0.5,1,1
5,3,1,-1,1,507,0.5,1,1
6,3,1,-1,1,349,0.6,1,1
7,3,1,-1,1,579,0.5,1,1
8,3,1,-1,1,665,0.9,1,1
9,3,1,-1,1,469,0.5,1,1
10,3,1,-1,1,853,0.5,1,1
11,3,1,-1,1,601,0.9,1,1
12,3,1,-1,1,436,0.5,1,1
13,3,1,-1,1,1362,0.5,0,-1
14,3,1,-1,1,852,0.5,1,-1
15,3,1,-1,1,1725,0.5,1,-1
16,3,1,-1,1,2187,0.6,0,-1
17,3,1,-1,1,1533,0.6,0,-1
18,3,1,-1,1,1044,0.6,1,-1
19,3,1,-1,1,1351,0.75,0,-1
20,3,1,-1,1,1039,0.8,0,-1
21,3,1,-1,1,652,0.5,0,-1
22,3,1,-1,1,1542,0.5,0,-1
23,3,1,-1,1,2074,0.5,1,-1
24,3,1,-1,1,902,0.5,0,-1
25,3,1,-1,1,1576,0.5,1,-1
26,3,1,-1,1,1542,0.5,1,-1
27,3,1,-1,1,982,0.7,1,-1
28,3,1,-1,1,1877,0.5,1,-1
29,3,1,-1,1,1473,0.7,1,-1
30,3,1,-1,1,1228,0.9,1,-1
1,1,1,-1,-1,NaN,0.5,NaN,1
2,1,1,-1,-1,743,0.5,0,1
3,1,1,-1,-1,597,0.5,0,1
4,1,1,-1,-1,508,0.75,0,1
5,1,1,-1,-1,728,0.65,0,1
6,1,1,-1,-1,633,0.5,0,1
7,1,1,-1,-1,492,0.5,0,1
8,1,1,-1,-1,588,0.75,1,1
9,1,1,-1,-1,586,0.5,1,1
10,1,1,-1,-1,608,0.65,1,1
11,1,1,-1,-1,831,0.8,0,1
12,1,1,-1,-1,833,0.5,1,1
13,1,1,-1,-1,NaN,0.5,NaN,-1
14,1,1,-1,-1,1278,0.5,1,-1
15,1,1,-1,-1,2174,0.5,0,-1
16,1,1,-1,-1,2701,0.7,0,-1
17,1,1,-1,-1,1494,0.75,0,-1
18,1,1,-1,-1,1237,0.8,1,-1
19,1,1,-1,-1,1492,0.7,0,-1
20,1,1,-1,-1,1219,0.8,0,-1
21,1,1,-1,-1,1590,0.5,0,-1
22,1,1,-1,-1,1908,0.5,0,-1
23,1,1,-1,-1,1182,0.6,1,-1
24,1,1,-1,-1,145,0.6,1,-1
25,1,1,-1,-1,2246,0.5,1,-1
26,1,1,-1,-1,1329,0.5,0,-1
27,1,1,-1,-1,1597,0.5,1,-1
28,1,1,-1,-1,2988,0.5,0,-1
29,1,1,-1,-1,961,0.5,0,-1
30,1,1,-1,-1,846,0.95,1,-1
1,2,1,-1,-1,361,0.5,1,1
2,2,1,-1,-1,737,0.5,1,1
3,2,1,-1,-1,570,0.5,1,1
4,2,1,-1,-1,404,0.55,1,1
5,2,1,-1,-1,732,0.5,1,1
6,2,1,-1,-1,727,0.65,1,1
7,2,1,-1,-1,488,0.5,1,1
8,2,1,-1,-1,688,0.8,1,1
9,2,1,-1,-1,872,0.5,0,1
10,2,1,-1,-1,719,0.5,0,1
11,2,1,-1,-1,454,0.8,0,1
12,2,1,-1,-1,627,0.5,1,1
13,2,1,-1,-1,1308,0.8,0,-1
14,2,1,-1,-1,1259,0.5,0,-1
15,2,1,-1,-1,1604,0.5,0,-1
16,2,1,-1,-1,1439,0.6,1,-1
17,2,1,-1,-1,2233,0.7,0,-1
18,2,1,-1,-1,791,0.65,0,-1
19,2,1,-1,-1,1418,0.7,0,-1
20,2,1,-1,-1,859,0.7,1,-1
21,2,1,-1,-1,1237,0.5,1,-1
22,2,1,-1,-1,1705,0.5,1,-1
23,2,1,-1,-1,2638,0.5,1,-1
24,2,1,-1,-1,1101,0.7,1,-1
25,2,1,-1,-1,2220,0.5,1,-1
26,2,1,-1,-1,2040,0.5,0,-1
27,2,1,-1,-1,982,0.5,0,-1
28,2,1,-1,-1,2314,0.5,0,-1
29,2,1,-1,-1,1266,0.5,1,-1
30,2,1,-1,-1,1283,0.9,1,-1
1,3,1,-1,-1,564,0.5,0,1
2,3,1,-1,-1,492,0.5,0,1
3,3,1,-1,-1,704,0.5,0,1
4,3,1,-1,-1,538,0.5,1,1
5,3,1,-1,-1,699,0.5,1,1
6,3,1,-1,-1,486,0.6,0,1
7,3,1,-1,-1,840,0.5,1,1
8,3,1,-1,-1,475,0.75,0,1
9,3,1,-1,-1,435,0.5,1,1
10,3,1,-1,-1,520,0.5,1,1
11,3,1,-1,-1,715,0.6,0,1
12,3,1,-1,-1,488,0.5,1,1
13,3,1,-1,-1,1068,0.5,1,-1
14,3,1,-1,-1,1526,0.5,0,-1
15,3,1,-1,-1,1290,0.7,0,-1
16,3,1,-1,-1,1287,0.7,0,-1
17,3,1,-1,-1,1873,0.65,1,-1
18,3,1,-1,-1,1020,0.6,0,-1
19,3,1,-1,-1,1575,0.8,0,-1
20,3,1,-1,-1,1161,0.7,1,-1
21,3,1,-1,-1,1078,0.5,0,-1
22,3,1,-1,-1,1535,0.5,1,-1
23,3,1,-1,-1,1102,0.5,1,-1
24,3,1,-1,-1,1494,0.5,0,-1
25,3,1,-1,-1,2465,0.5,0,-1
26,3,1,-1,-1,2050,0.5,1,-1
27,3,1,-1,-1,1266,0.5,0,-1
28,3,1,-1,-1,1525,0.5,1,-1
29,3,1,-1,-1,2652,0.5,0,-1
30,3,1,-1,-1,827,0.95,1,-1
1,1,1,1,1,NaN,0.5,NaN,1
2,1,1,1,1,481,0.5,1,1
3,1,1,1,1,480,0.5,0,1
4,1,1,1,1,593,0.8,1,1
5,1,1,1,1,909,0.5,1,1
6,1,1,1,1,NaN,0.55,NaN,1
7,1,1,1,1,606,0.5,1,1
8,1,1,1,1,686,0.75,1,1
9,1,1,1,1,581,0.5,0,1
10,1,1,1,1,447,0.55,0,1
11,1,1,1,1,NaN,0.65,NaN,1
12,1,1,1,1,770,0.5,1,1
13,1,1,1,1,2100,0.8,1,-1
14,1,1,1,1,1349,0.5,0,-1
15,1,1,1,1,2231,0.5,1,-1
16,1,1,1,1,2873,0.7,0,-1
17,1,1,1,1,966,0.75,1,-1
18,1,1,1,1,1047,0.6,0,-1
19,1,1,1,1,1400,0.55,0,-1
20,1,1,1,1,NaN,0.8,NaN,-1
21,1,1,1,1,1734,0.5,0,-1
22,1,1,1,1,1975,0.5,1,-1
23,1,1,1,1,2292,0.6,0,-1
24,1,1,1,1,391,0.6,1,-1
25,1,1,1,1,2831,0.5,1,-1
26,1,1,1,1,1203,0.5,0,-1
27,1,1,1,1,1462,0.5,0,-1
28,1,1,1,1,1985,0.5,0,-1
29,1,1,1,1,788,0.8,0,-1
30,1,1,1,1,1246,0.95,1,-1
1,2,1,1,1,496,0.55,1,1
2,2,1,1,1,644,0.5,1,1
3,2,1,1,1,559,0.5,0,1
4,2,1,1,1,612,0.5,0,1
5,2,1,1,1,571,0.5,1,1
6,2,1,1,1,425,0.7,0,1
7,2,1,1,1,438,0.5,0,1
8,2,1,1,1,494,0.65,1,1
9,2,1,1,1,723,0.5,0,1
10,2,1,1,1,795,0.5,1,1
11,2,1,1,1,435,0.8,0,1
12,2,1,1,1,979,0.5,0,1
13,2,1,1,1,1408,0.6,0,-1
14,2,1,1,1,1739,0.6,1,-1
15,2,1,1,1,1556,0.5,0,-1
16,2,1,1,1,1997,0.65,1,-1
17,2,1,1,1,836,0.9,0,-1
18,2,1,1,1,1839,0.6,1,-1
19,2,1,1,1,1521,0.6,0,-1
20,2,1,1,1,1072,0.65,0,-1
21,2,1,1,1,901,0.5,1,-1
22,2,1,1,1,1765,0.5,0,-1
23,2,1,1,1,1940,0.5,1,-1
24,2,1,1,1,2577,0.65,1,-1
25,2,1,1,1,2721,0.5,1,-1
26,2,1,1,1,1576,0.5,0,-1
27,2,1,1,1,1224,0.5,0,-1
28,2,1,1,1,1426,0.5,0,-1
29,2,1,1,1,1747,0.5,0,-1
30,2,1,1,1,1224,0.8,1,-1
1,3,1,1,1,317,0.55,1,1
2,3,1,1,1,528,0.5,1,1
3,3,1,1,1,597,0.5,1,1
4,3,1,1,1,505,0.5,1,1
5,3,1,1,1,506,0.5,0,1
6,3,1,1,1,315,0.6,0,1
7,3,1,1,1,642,0.5,1,1
8,3,1,1,1,688,0.8,0,1
9,3,1,1,1,NaN,0.6,NaN,1
10,3,1,1,1,730,0.5,0,1
11,3,1,1,1,502,0.85,1,1
12,3,1,1,1,632,0.5,0,1
13,3,1,1,1,1686,0.5,1,-1
14,3,1,1,1,920,0.5,1,-1
15,3,1,1,1,1520,0.5,0,-1
16,3,1,1,1,2102,0.55,0,-1
17,3,1,1,1,2126,0.75,0,-1
18,3,1,1,1,1475,0.6,1,-1
19,3,1,1,1,1221,0.55,1,-1
20,3,1,1,1,1561,0.85,1,-1
21,3,1,1,1,773,0.5,0,-1
22,3,1,1,1,1697,0.5,1,-1
23,3,1,1,1,1784,0.5,1,-1
24,3,1,1,1,1396,0.7,1,-1
25,3,1,1,1,1600,0.5,1,-1
26,3,1,1,1,1984,0.5,0,-1
27,3,1,1,1,1098,0.5,0,-1
28,3,1,1,1,1726,0.5,0,-1
29,3,1,1,1,1097,0.5,1,-1
30,3,1,1,1,1348,0.95,1,-1
1,1,1,1,-1,528,0.5,0,1
2,1,1,1,-1,756,0.5,0,1
3,1,1,1,-1,453,0.5,1,1
4,1,1,1,-1,564,0.95,1,1
5,1,1,1,-1,543,0.6,1,1
6,1,1,1,-1,NaN,0.7,NaN,1
7,1,1,1,-1,576,0.5,0,1
8,1,1,1,-1,499,0.7,1,1
9,1,1,1,-1,636,0.5,0,1
10,1,1,1,-1,NaN,0.5,NaN,1
11,1,1,1,-1,427,0.6,0,1
12,1,1,1,-1,696,0.5,1,1
13,1,1,1,-1,1933,0.8,0,-1
14,1,1,1,-1,NaN,0.5,NaN,-1
15,1,1,1,-1,1663,0.5,1,-1
16,1,1,1,-1,1994,0.75,0,-1
17,1,1,1,-1,803,0.7,0,-1
18,1,1,1,-1,1410,0.7,1,-1
19,1,1,1,-1,1052,0.6,0,-1
20,1,1,1,-1,2212,0.8,0,-1
21,1,1,1,-1,1630,0.5,1,-1
22,1,1,1,-1,2084,0.5,0,-1
23,1,1,1,-1,1839,0.6,1,-1
24,1,1,1,-1,450,0.7,1,-1
25,1,1,1,-1,2007,0.5,0,-1
26,1,1,1,-1,1725,0.5,1,-1
27,1,1,1,-1,1694,0.5,1,-1
28,1,1,1,-1,1785,0.5,1,-1
29,1,1,1,-1,964,0.5,0,-1
30,1,1,1,-1,1038,0.95,0,-1
1,2,1,1,-1,404,0.55,0,1
2,2,1,1,-1,509,0.5,1,1
3,2,1,1,-1,516,0.5,0,1
4,2,1,1,-1,641,0.55,0,1
5,2,1,1,-1,555,0.5,0,1
6,2,1,1,-1,593,0.75,1,1
7,2,1,1,-1,577,0.5,0,1
8,2,1,1,-1,705,0.8,1,1
9,2,1,1,-1,709,0.5,0,1
10,2,1,1,-1,551,0.5,0,1
11,2,1,1,-1,583,0.85,0,1
12,2,1,1,-1,520,0.5,0,1
13,2,1,1,-1,2278,0.5,1,-1
14,2,1,1,-1,1551,0.5,0,-1
15,2,1,1,-1,2615,0.5,0,-1
16,2,1,1,-1,2136,0.7,1,-1
17,2,1,1,-1,1142,0.8,1,-1
18,2,1,1,-1,1003,0.7,0,-1
19,2,1,1,-1,1214,0.55,0,-1
20,2,1,1,-1,864,0.7,1,-1
21,2,1,1,-1,1901,0.5,0,-1
22,2,1,1,-1,1942,0.5,0,-1
23,2,1,1,-1,2017,0.5,1,-1
24,2,1,1,-1,867,0.85,1,-1
25,2,1,1,-1,1840,0.5,1,-1
26,2,1,1,-1,1136,0.5,0,-1
27,2,1,1,-1,1513,0.5,0,-1
28,2,1,1,-1,1758,0.5,1,-1
29,2,1,1,-1,1890,0.5,0,-1
30,2,1,1,-1,1161,0.85,0,-1
1,3,1,1,-1,358,0.6,0,1
2,3,1,1,-1,600,0.5,0,1
3,3,1,1,-1,634,0.5,1,1
4,3,1,1,-1,502,0.5,1,1
5,3,1,1,-1,594,0.5,0,1
6,3,1,1,-1,NaN,0.8,NaN,1
7,3,1,1,-1,545,0.5,0,1
8,3,1,1,-1,565,0.75,0,1
9,3,1,1,-1,710,0.5,1,1
10,3,1,1,-1,624,0.5,1,1
11,3,1,1,-1,584,0.75,1,1
12,3,1,1,-1,602,0.5,1,1
13,3,1,1,-1,1392,0.5,1,-1
14,3,1,1,-1,1230,0.5,1,-1
15,3,1,1,-1,1346,0.5,0,-1
16,3,1,1,-1,2431,0.65,1,-1
17,3,1,1,-1,2194,0.7,1,-1
18,3,1,1,-1,2113,0.65,0,-1
19,3,1,1,-1,1519,0.55,0,-1
20,3,1,1,-1,2219,0.85,1,-1
21,3,1,1,-1,1054,0.5,1,-1
22,3,1,1,-1,1472,0.5,1,-1
23,3,1,1,-1,1536,0.5,0,-1
24,3,1,1,-1,613,0.5,1,-1
25,3,1,1,-1,1245,0.5,0,-1
26,3,1,1,-1,2735,0.5,1,-1
27,3,1,1,-1,1033,0.5,1,-1
28,3,1,1,-1,995,0.5,1,-1
29,3,1,1,-1,995,0.5,0,-1
30,3,1,1,-1,1186,0.9,1,-1
1,1,2,-1,1,483,0.6,1,1
2,1,2,-1,1,539,0.5,0,1
3,1,2,-1,1,942,0.65,0,1
4,1,2,-1,1,530,0.9,1,1
5,1,2,-1,1,495,0.5,1,1
6,1,2,-1,1,536,0.7,0,1
7,1,2,-1,1,718,0.5,0,1
8,1,2,-1,1,413,0.7,0,1
9,1,2,-1,1,808,0.55,0,1
10,1,2,-1,1,608,0.8,1,1
11,1,2,-1,1,606,0.55,0,1
12,1,2,-1,1,397,0.55,1,1
13,1,2,-1,1,2989,0.85,0,-1
14,1,2,-1,1,1041,0.8,0,-1
15,1,2,-1,1,2300,0.55,0,-1
16,1,2,-1,1,1838,0.7,0,-1
17,1,2,-1,1,1373,0.75,1,-1
18,1,2,-1,1,1265,0.7,0,-1
19,1,2,-1,1,1074,0.75,1,-1
20,1,2,-1,1,1350,0.8,0,-1
21,1,2,-1,1,843,0.75,1,-1
22,1,2,-1,1,1490,0.6,0,-1
23,1,2,-1,1,1194,0.5,1,-1
24,1,2,-1,1,405,0.7,0,-1
25,1,2,-1,1,1996,0.55,0,-1
26,1,2,-1,1,1529,0.5,0,-1
27,1,2,-1,1,1604,0.7,1,-1
28,1,2,-1,1,1993,0.75,0,-1
29,1,2,-1,1,731,0.8,1,-1
30,1,2,-1,1,1152,0.85,1,-1
1,2,2,-1,1,461,0.55,1,1
2,2,2,-1,1,563,0.65,0,1
3,2,2,-1,1,491,0.8,0,1
4,2,2,-1,1,549,0.5,1,1
5,2,2,-1,1,619,0.5,0,1
6,2,2,-1,1,866,0.8,0,1
7,2,2,-1,1,515,0.65,1,1
8,2,2,-1,1,457,0.9,0,1
9,2,2,-1,1,546,0.6,1,1
10,2,2,-1,1,370,0.9,1,1
11,2,2,-1,1,506,0.75,1,1
12,2,2,-1,1,349,0.5,1,1
13,2,2,-1,1,1464,0.5,0,-1
14,2,2,-1,1,1984,0.6,1,-1
15,2,2,-1,1,1002,0.6,1,-1
16,2,2,-1,1,1418,0.7,1,-1
17,2,2,-1,1,1169,0.85,0,-1
18,2,2,-1,1,1767,0.6,0,-1
19,2,2,-1,1,1243,0.8,1,-1
20,2,2,-1,1,1434,0.85,1,-1
21,2,2,-1,1,749,0.7,0,-1
22,2,2,-1,1,1385,0.6,1,-1
23,2,2,-1,1,1266,0.6,0,-1
24,2,2,-1,1,1209,0.75,1,-1
25,2,2,-1,1,1617,0.5,0,-1
26,2,2,-1,1,1027,1,1,-1
27,2,2,-1,1,2257,0.75,1,-1
28,2,2,-1,1,1795,0.7,0,-1
29,2,2,-1,1,1375,0.5,0,-1
30,2,2,-1,1,806,1,0,-1
1,3,2,-1,1,349,0.5,1,1
2,3,2,-1,1,746,0.55,1,1
3,3,2,-1,1,558,0.65,0,1
4,3,2,-1,1,552,0.65,1,1
5,3,2,-1,1,527,0.8,1,1
6,3,2,-1,1,585,0.7,0,1
7,3,2,-1,1,524,0.65,1,1
8,3,2,-1,1,398,0.55,0,1
9,3,2,-1,1,484,0.6,1,1
10,3,2,-1,1,524,0.6,0,1
11,3,2,-1,1,656,0.8,1,1
12,3,2,-1,1,303,0.5,0,1
13,3,2,-1,1,1227,0.5,1,-1
14,3,2,-1,1,1381,0.65,0,-1
15,3,2,-1,1,1193,0.65,1,-1
16,3,2,-1,1,1754,0.65,1,-1
17,3,2,-1,1,2076,0.65,1,-1
18,3,2,-1,1,1091,0.65,1,-1
19,3,2,-1,1,1501,0.75,0,-1
20,3,2,-1,1,831,0.7,0,-1
21,3,2,-1,1,795,0.6,0,-1
22,3,2,-1,1,1205,0.55,0,-1
23,3,2,-1,1,978,0.5,1,-1
24,3,2,-1,1,904,0.8,0,-1
25,3,2,-1,1,778,0.65,1,-1
26,3,2,-1,1,1669,0.5,0,-1
27,3,2,-1,1,992,0.75,1,-1
28,3,2,-1,1,1005,0.85,1,-1
29,3,2,-1,1,1219,0.8,1,-1
30,3,2,-1,1,851,1,1,-1
1,1,2,-1,-1,468,0.6,0,1
2,1,2,-1,-1,584,0.75,0,1
3,1,2,-1,-1,624,0.95,0,1
4,1,2,-1,-1,611,0.85,1,1
5,1,2,-1,-1,784,0.7,1,1
6,1,2,-1,-1,763,0.7,1,1
7,1,2,-1,-1,545,0.7,1,1
8,1,2,-1,-1,544,0.7,0,1
9,1,2,-1,-1,650,0.7,1,1
10,1,2,-1,-1,459,0.9,1,1
11,1,2,-1,-1,591,1,0,1
12,1,2,-1,-1,448,0.5,1,1
13,1,2,-1,-1,2685,0.7,1,-1
14,1,2,-1,-1,1550,1,1,-1
15,1,2,-1,-1,2209,0.6,0,-1
16,1,2,-1,-1,NaN,0.6,NaN,-1
17,1,2,-1,-1,1924,0.8,1,-1
18,1,2,-1,-1,1893,0.65,1,-1
19,1,2,-1,-1,1912,0.6,0,-1
20,1,2,-1,-1,984,0.9,0,-1
21,1,2,-1,-1,1167,0.75,0,-1
22,1,2,-1,-1,1946,0.65,1,-1
23,1,2,-1,-1,820,0.7,1,-1
24,1,2,-1,-1,107,0.65,0,-1
25,1,2,-1,-1,1272,0.7,1,-1
26,1,2,-1,-1,1509,0.8,0,-1
27,1,2,-1,-1,2990,0.75,1,-1
28,1,2,-1,-1,1258,0.7,0,-1
29,1,2,-1,-1,1194,0.5,1,-1
30,1,2,-1,-1,808,0.85,1,-1
1,2,2,-1,-1,418,0.7,0,1
2,2,2,-1,-1,525,0.7,1,1
3,2,2,-1,-1,457,0.85,1,1
4,2,2,-1,-1,563,0.6,1,1
5,2,2,-1,-1,634,0.9,0,1
6,2,2,-1,-1,481,0.8,1,1
7,2,2,-1,-1,490,0.5,1,1
8,2,2,-1,-1,468,0.85,1,1
9,2,2,-1,-1,827,0.7,0,1
10,2,2,-1,-1,412,0.95,1,1
11,2,2,-1,-1,499,0.7,0,1
12,2,2,-1,-1,391,0.5,1,1
13,2,2,-1,-1,1417,0.5,0,-1
14,2,2,-1,-1,2349,0.5,1,-1
15,2,2,-1,-1,1234,0.6,0,-1
16,2,2,-1,-1,2051,0.7,0,-1
17,2,2,-1,-1,1858,0.65,1,-1
18,2,2,-1,-1,955,0.7,0,-1
19,2,2,-1,-1,1301,0.9,0,-1
20,2,2,-1,-1,1119,0.7,1,-1
21,2,2,-1,-1,1055,0.5,1,-1
22,2,2,-1,-1,1018,1,1,-1
23,2,2,-1,-1,1624,0.6,1,-1
24,2,2,-1,-1,1009,0.8,1,-1
25,2,2,-1,-1,2070,0.5,1,-1
26,2,2,-1,-1,NaN,0.5,NaN,-1
27,2,2,-1,-1,1479,0.8,1,-1
28,2,2,-1,-1,1476,0.6,1,-1
29,2,2,-1,-1,1824,0.55,1,-1
30,2,2,-1,-1,950,1,1,-1
1,3,2,-1,-1,317,0.55,1,1
2,3,2,-1,-1,604,0.55,1,1
3,3,2,-1,-1,474,0.7,1,1
4,3,2,-1,-1,437,0.65,1,1
5,3,2,-1,-1,523,1,1,1
6,3,2,-1,-1,294,0.8,1,1
7,3,2,-1,-1,520,0.6,1,1
8,3,2,-1,-1,416,0.55,0,1
9,3,2,-1,-1,450,0.6,1,1
10,3,2,-1,-1,401,0.9,1,1
11,3,2,-1,-1,835,0.85,1,1
12,3,2,-1,-1,309,0.5,1,1
13,3,2,-1,-1,1352,0.5,0,-1
14,3,2,-1,-1,1441,0.6,1,-1
15,3,2,-1,-1,1740,0.5,1,-1
16,3,2,-1,-1,1483,0.65,1,-1
17,3,2,-1,-1,753,0.75,1,-1
18,3,2,-1,-1,782,0.6,0,-1
19,3,2,-1,-1,995,0.6,0,-1
20,3,2,-1,-1,824,0.95,1,-1
21,3,2,-1,-1,588,0.55,0,-1
22,3,2,-1,-1,1660,0.5,1,-1
23,3,2,-1,-1,2661,0.5,1,-1
24,3,2,-1,-1,1076,0.5,0,-1
25,3,2,-1,-1,845,0.6,1,-1
26,3,2,-1,-1,2267,0.5,1,-1
27,3,2,-1,-1,2159,0.7,0,-1
28,3,2,-1,-1,924,0.8,1,-1
29,3,2,-1,-1,961,1,1,-1
30,3,2,-1,-1,893,0.9,1,-1
1,1,2,1,1,491,0.55,1,1
2,1,2,1,1,661,0.55,0,1
3,1,2,1,1,454,0.8,0,1
4,1,2,1,1,587,0.85,0,1
5,1,2,1,1,501,0.65,1,1
6,1,2,1,1,770,0.7,1,1
7,1,2,1,1,531,0.7,1,1
8,1,2,1,1,529,0.75,1,1
9,1,2,1,1,954,0.5,0,1
10,1,2,1,1,592,0.8,1,1
11,1,2,1,1,705,0.85,0,1
12,1,2,1,1,794,0.5,1,1
13,1,2,1,1,1276,0.75,1,-1
14,1,2,1,1,994,0.5,0,-1
15,1,2,1,1,2345,0.6,0,-1
16,1,2,1,1,850,0.75,1,-1
17,1,2,1,1,995,0.7,1,-1
18,1,2,1,1,807,0.6,1,-1
19,1,2,1,1,1723,0.75,0,-1
20,1,2,1,1,NaN,0.7,NaN,-1
21,1,2,1,1,1558,0.75,1,-1
22,1,2,1,1,2060,0.65,1,-1
23,1,2,1,1,1353,0.8,0,-1
24,1,2,1,1,716,0.7,1,-1
25,1,2,1,1,2005,0.7,0,-1
26,1,2,1,1,2817,1,1,-1
27,1,2,1,1,1644,0.5,0,-1
28,1,2,1,1,1160,0.7,0,-1
29,1,2,1,1,941,0.5,1,-1
30,1,2,1,1,1297,0.65,0,-1
1,2,2,1,1,543,0.6,0,1
2,2,2,1,1,584,0.55,1,1
3,2,2,1,1,461,0.8,1,1
4,2,2,1,1,413,0.5,1,1
5,2,2,1,1,707,0.6,1,1
6,2,2,1,1,512,0.8,1,1
7,2,2,1,1,617,0.75,1,1
8,2,2,1,1,338,0.6,0,1
9,2,2,1,1,622,0.65,0,1
10,2,2,1,1,404,0.9,1,1
11,2,2,1,1,751,0.65,1,1
12,2,2,1,1,391,0.5,1,1
13,2,2,1,1,1959,0.5,1,-1
14,2,2,1,1,1860,0.6,0,-1
15,2,2,1,1,1956,0.55,1,-1
16,2,2,1,1,1103,0.55,0,-1
17,2,2,1,1,1891,0.6,0,-1
18,2,2,1,1,1860,0.6,0,-1
19,2,2,1,1,1599,0.8,1,-1
20,2,2,1,1,1389,0.7,0,-1
21,2,2,1,1,762,0.7,1,-1
22,2,2,1,1,1793,0.5,1,-1
23,2,2,1,1,1507,0.6,1,-1
24,2,2,1,1,1977,0.8,1,-1
25,2,2,1,1,2224,0.5,1,-1
26,2,2,1,1,1321,0.5,0,-1
27,2,2,1,1,2346,0.85,0,-1
28,2,2,1,1,1991,0.6,1,-1
29,2,2,1,1,1864,0.5,1,-1
30,2,2,1,1,1432,0.9,0,-1
1,3,2,1,1,369,0.55,0,1
2,3,2,1,1,800,0.55,1,1
3,3,2,1,1,603,0.8,1,1
4,3,2,1,1,407,0.55,0,1
5,3,2,1,1,428,0.5,1,1
6,3,2,1,1,250,0.55,0,1
7,3,2,1,1,501,0.6,1,1
8,3,2,1,1,339,0.6,1,1
9,3,2,1,1,595,0.55,1,1
10,3,2,1,1,385,0.9,0,1
11,3,2,1,1,668,0.9,1,1
12,3,2,1,1,615,0.5,0,1
13,3,2,1,1,1830,0.5,0,-1
14,3,2,1,1,911,0.85,0,-1
15,3,2,1,1,1377,0.6,1,-1
16,3,2,1,1,838,0.55,1,-1
17,3,2,1,1,1599,0.65,1,-1
18,3,2,1,1,1992,0.6,0,-1
19,3,2,1,1,1025,0.55,0,-1
20,3,2,1,1,1054,0.7,0,-1
21,3,2,1,1,703,0.6,0,-1
22,3,2,1,1,1552,0.5,1,-1
23,3,2,1,1,1811,0.5,1,-1
24,3,2,1,1,1448,0.9,1,-1
25,3,2,1,1,1226,0.6,1,-1
26,3,2,1,1,1573,0.5,1,-1
27,3,2,1,1,1905,0.85,1,-1
28,3,2,1,1,2394,0.5,1,-1
29,3,2,1,1,2544,0.5,0,-1
30,3,2,1,1,800,0.9,1,-1
1,1,2,1,-1,438,0.6,0,1
2,1,2,1,-1,744,0.6,1,1
3,1,2,1,-1,587,0.75,1,1
4,1,2,1,-1,561,0.9,1,1
5,1,2,1,-1,495,0.7,1,1
6,1,2,1,-1,882,0.8,0,1
7,1,2,1,-1,544,0.6,1,1
8,1,2,1,-1,513,0.8,0,1
9,1,2,1,-1,506,0.5,1,1
10,1,2,1,-1,586,0.7,1,1
11,1,2,1,-1,799,0.7,0,1
12,1,2,1,-1,NaN,0.5,NaN,1
13,1,2,1,-1,2317,0.9,0,-1
14,1,2,1,-1,NaN,0.5,NaN,-1
15,1,2,1,-1,2366,0.6,1,-1
16,1,2,1,-1,1696,0.55,0,-1
17,1,2,1,-1,895,0.8,1,-1
18,1,2,1,-1,2033,0.75,0,-1
19,1,2,1,-1,2350,0.6,1,-1
20,1,2,1,-1,2124,0.9,1,-1
21,1,2,1,-1,1094,1,0,-1
22,1,2,1,-1,2112,0.65,0,-1
23,1,2,1,-1,1158,0.7,1,-1
24,1,2,1,-1,552,0.6,1,-1
25,1,2,1,-1,1797,0.65,1,-1
26,1,2,1,-1,1561,0.5,1,-1
27,1,2,1,-1,1578,0.5,0,-1
28,1,2,1,-1,1727,0.7,0,-1
29,1,2,1,-1,674,0.5,1,-1
30,1,2,1,-1,930,0.9,0,-1
1,2,2,1,-1,396,0.55,1,1
2,2,2,1,-1,476,0.6,1,1
3,2,2,1,-1,715,0.7,1,1
4,2,2,1,-1,397,0.5,1,1
5,2,2,1,-1,973,0.5,0,1
6,2,2,1,-1,474,0.75,0,1
7,2,2,1,-1,798,0.5,1,1
8,2,2,1,-1,400,0.6,0,1
9,2,2,1,-1,637,0.6,1,1
10,2,2,1,-1,390,1,1,1
11,2,2,1,-1,484,0.75,1,1
12,2,2,1,-1,429,0.5,0,1
13,2,2,1,-1,2275,0.5,0,-1
14,2,2,1,-1,1382,0.7,1,-1
15,2,2,1,-1,2158,0.55,1,-1
16,2,2,1,-1,1777,0.55,0,-1
17,2,2,1,-1,1342,0.75,0,-1
18,2,2,1,-1,977,0.7,1,-1
19,2,2,1,-1,1603,0.7,0,-1
20,2,2,1,-1,1520,0.7,0,-1
21,2,2,1,-1,2232,0.6,1,-1
22,2,2,1,-1,1329,0.65,1,-1
23,2,2,1,-1,2232,0.6,1,-1
24,2,2,1,-1,2006,0.65,0,-1
25,2,2,1,-1,2151,0.5,1,-1
26,2,2,1,-1,2373,0.5,0,-1
27,2,2,1,-1,1827,0.75,1,-1
28,2,2,1,-1,NaN,0.5,NaN,-1
29,2,2,1,-1,1566,0.5,1,-1
30,2,2,1,-1,948,0.8,0,-1
1,3,2,1,-1,431,0.5,1,1
2,3,2,1,-1,641,0.65,1,1
3,3,2,1,-1,590,0.65,1,1
4,3,2,1,-1,339,0.55,1,1
5,3,2,1,-1,713,0.5,0,1
6,3,2,1,-1,436,0.7,0,1
7,3,2,1,-1,487,0.65,0,1
8,3,2,1,-1,718,0.65,1,1
9,3,2,1,-1,471,0.6,1,1
10,3,2,1,-1,502,0.55,1,1
11,3,2,1,-1,481,0.9,0,1
12,3,2,1,-1,359,0.5,1,1
13,3,2,1,-1,2625,0.5,0,-1
14,3,2,1,-1,1219,0.5,0,-1
15,3,2,1,-1,2154,0.55,0,-1
16,3,2,1,-1,1905,0.65,0,-1
17,3,2,1,-1,1158,0.75,1,-1
18,3,2,1,-1,628,0.6,1,-1
19,3,2,1,-1,767,0.85,1,-1
20,3,2,1,-1,1031,0.8,0,-1
21,3,2,1,-1,947,0.6,1,-1
22,3,2,1,-1,873,1,1,-1
23,3,2,1,-1,2133,0.5,1,-1
24,3,2,1,-1,2290,0.75,1,-1
25,3,2,1,-1,722,0.6,1,-1
26,3,2,1,-1,1559,1,1,-1
27,3,2,1,-1,1235,0.7,1,-1
28,3,2,1,-1,1631,0.7,1,-1
29,3,2,1,-1,1541,0.5,0,-1
30,3,2,1,-1,588,0.95,1,-1
1,1,3,-1,1,455,0.6,1,1
2,1,3,-1,1,633,0.75,1,1
3,1,3,-1,1,511,0.75,1,1
4,1,3,-1,1,777,0.65,0,1
5,1,3,-1,1,778,0.7,0,1
6,1,3,-1,1,697,0.85,0,1
7,1,3,-1,1,490,0.5,0,1
8,1,3,-1,1,608,0.75,0,1
9,1,3,-1,1,662,0.55,0,1
10,1,3,-1,1,NaN,0.5,NaN,1
11,1,3,-1,1,817,0.6,1,1
12,1,3,-1,1,575,0.55,1,1
13,1,3,-1,1,1633,0.6,0,-1
14,1,3,-1,1,812,1,0,-1
15,1,3,-1,1,2349,0.6,1,-1
16,1,3,-1,1,NaN,0.75,NaN,-1
17,1,3,-1,1,1699,0.8,0,-1
18,1,3,-1,1,1392,0.8,0,-1
19,1,3,-1,1,2045,0.75,1,-1
20,1,3,-1,1,1264,0.75,1,-1
21,1,3,-1,1,810,1,1,-1
22,1,3,-1,1,1862,0.6,1,-1
23,1,3,-1,1,1124,0.65,1,-1
24,1,3,-1,1,940,0.75,0,-1
25,1,3,-1,1,864,0.7,0,-1
26,1,3,-1,1,1373,0.5,0,-1
27,1,3,-1,1,2129,0.55,1,-1
28,1,3,-1,1,1996,0.7,1,-1
29,1,3,-1,1,2774,0.5,0,-1
30,1,3,-1,1,1000,0.9,1,-1
1,2,3,-1,1,300,0.55,1,1
2,2,3,-1,1,703,0.65,0,1
3,2,3,-1,1,484,0.8,0,1
4,2,3,-1,1,743,0.55,1,1
5,2,3,-1,1,582,0.55,1,1
6,2,3,-1,1,576,0.8,0,1
7,2,3,-1,1,503,0.9,1,1
8,2,3,-1,1,413,1,0,1
9,2,3,-1,1,471,0.6,1,1
10,2,3,-1,1,351,0.95,1,1
11,2,3,-1,1,469,0.7,1,1
12,2,3,-1,1,480,0.5,1,1
13,2,3,-1,1,NaN,0.7,NaN,-1
14,2,3,-1,1,2888,0.7,1,-1
15,2,3,-1,1,1195,0.85,1,-1
16,2,3,-1,1,1602,0.85,1,-1
17,2,3,-1,1,877,0.85,0,-1
18,2,3,-1,1,1366,0.65,1,-1
19,2,3,-1,1,1313,0.9,1,-1
20,2,3,-1,1,662,0.9,1,-1
21,2,3,-1,1,831,0.7,0,-1
22,2,3,-1,1,1671,0.5,0,-1
23,2,3,-1,1,2790,0.6,1,-1
24,2,3,-1,1,966,0.8,1,-1
25,2,3,-1,1,1831,0.6,1,-1
26,2,3,-1,1,1071,0.5,1,-1
27,2,3,-1,1,1539,0.7,1,-1
28,2,3,-1,1,1548,0.7,1,-1
29,2,3,-1,1,1985,0.5,0,-1
30,2,3,-1,1,718,1,0,-1
1,3,3,-1,1,409,0.6,1,1
2,3,3,-1,1,517,0.55,1,1
3,3,3,-1,1,415,0.65,1,1
4,3,3,-1,1,433,1,1,1
5,3,3,-1,1,483,1,1,1
6,3,3,-1,1,369,0.8,0,1
7,3,3,-1,1,411,1,1,1
8,3,3,-1,1,NaN,0.5,NaN,1
9,3,3,-1,1,628,0.7,1,1
10,3,3,-1,1,347,0.85,0,1
11,3,3,-1,1,686,0.65,0,1
12,3,3,-1,1,400,0.5,1,1
13,3,3,-1,1,NaN,0.9,NaN,-1
14,3,3,-1,1,1177,0.55,0,-1
15,3,3,-1,1,2210,0.7,0,-1
16,3,3,-1,1,885,0.8,1,-1
17,3,3,-1,1,1531,0.8,1,-1
18,3,3,-1,1,1003,0.65,1,-1
19,3,3,-1,1,900,1,1,-1
20,3,3,-1,1,1385,0.85,1,-1
21,3,3,-1,1,1198,0.6,0,-1
22,3,3,-1,1,594,0.5,0,-1
23,3,3,-1,1,1045,0.6,1,-1
24,3,3,-1,1,1284,0.9,0,-1
25,3,3,-1,1,864,0.75,1,-1
26,3,3,-1,1,1380,0.5,0,-1
27,3,3,-1,1,1047,0.8,1,-1
28,3,3,-1,1,951,0.8,1,-1
29,3,3,-1,1,1312,1,1,-1
30,3,3,-1,1,1073,1,1,-1
1,1,3,-1,-1,560,0.6,0,1
2,1,3,-1,-1,762,0.7,1,1
3,1,3,-1,-1,505,0.8,0,1
4,1,3,-1,-1,487,0.95,1,1
5,1,3,-1,-1,622,0.7,0,1
6,1,3,-1,-1,NaN,0.75,NaN,1
7,1,3,-1,-1,501,0.7,1,1
8,1,3,-1,-1,577,0.7,0,1
9,1,3,-1,-1,596,0.6,1,1
10,1,3,-1,-1,NaN,0.5,NaN,1
11,1,3,-1,-1,487,0.85,0,1
12,1,3,-1,-1,451,0.55,1,1
13,1,3,-1,-1,NaN,0.7,NaN,-1
14,1,3,-1,-1,1454,1,1,-1
15,1,3,-1,-1,2597,0.6,0,-1
16,1,3,-1,-1,1478,0.85,0,-1
17,1,3,-1,-1,953,0.9,1,-1
18,1,3,-1,-1,1341,0.8,0,-1
19,1,3,-1,-1,1624,0.7,0,-1
20,1,3,-1,-1,1329,0.85,0,-1
21,1,3,-1,-1,943,0.75,0,-1
22,1,3,-1,-1,1786,1,1,-1
23,1,3,-1,-1,678,0.75,1,-1
24,1,3,-1,-1,680,0.65,1,-1
25,1,3,-1,-1,968,0.75,1,-1
26,1,3,-1,-1,NaN,0.5,NaN,-1
27,1,3,-1,-1,1344,0.85,1,-1
28,1,3,-1,-1,2001,0.65,1,-1
29,1,3,-1,-1,2679,0.5,1,-1
30,1,3,-1,-1,941,0.85,0,-1
1,2,3,-1,-1,388,0.55,1,1
2,2,3,-1,-1,613,0.65,1,1
3,2,3,-1,-1,694,0.65,1,1
4,2,3,-1,-1,576,0.9,1,1
5,2,3,-1,-1,645,0.5,1,1
6,2,3,-1,-1,350,0.95,1,1
7,2,3,-1,-1,366,0.5,1,1
8,2,3,-1,-1,446,1,1,1
9,2,3,-1,-1,482,0.85,1,1
10,2,3,-1,-1,352,1,1,1
11,2,3,-1,-1,658,0.75,0,1
12,2,3,-1,-1,390,0.5,1,1
13,2,3,-1,-1,2141,0.75,0,-1
14,2,3,-1,-1,2098,0.8,1,-1
15,2,3,-1,-1,1167,0.85,0,-1
16,2,3,-1,-1,2174,0.75,1,-1
17,2,3,-1,-1,737,0.9,1,-1
18,2,3,-1,-1,1786,0.65,0,-1
19,2,3,-1,-1,1154,0.9,0,-1
20,2,3,-1,-1,1303,0.7,1,-1
21,2,3,-1,-1,891,0.5,1,-1
22,2,3,-1,-1,1167,1,1,-1
23,2,3,-1,-1,1070,0.6,1,-1
24,2,3,-1,-1,815,0.8,1,-1
25,2,3,-1,-1,1323,0.6,1,-1
26,2,3,-1,-1,1035,0.5,0,-1
27,2,3,-1,-1,1175,0.85,1,-1
28,2,3,-1,-1,1670,0.7,0,-1
29,2,3,-1,-1,609,0.55,1,-1
30,2,3,-1,-1,846,1,1,-1
1,3,3,-1,-1,312,0.55,1,1
2,3,3,-1,-1,581,0.6,1,1
3,3,3,-1,-1,438,0.7,1,1
4,3,3,-1,-1,650,0.75,1,1
5,3,3,-1,-1,474,1,1,1
6,3,3,-1,-1,420,0.8,1,1
7,3,3,-1,-1,518,0.9,1,1
8,3,3,-1,-1,374,0.9,0,1
9,3,3,-1,-1,589,0.6,1,1
10,3,3,-1,-1,531,0.8,1,1
11,3,3,-1,-1,531,0.65,0,1
12,3,3,-1,-1,405,0.5,1,1
13,3,3,-1,-1,1127,0.5,0,-1
14,3,3,-1,-1,1685,0.5,0,-1
15,3,3,-1,-1,2050,0.6,0,-1
16,3,3,-1,-1,1066,0.8,1,-1
17,3,3,-1,-1,651,0.8,1,-1
18,3,3,-1,-1,756,0.7,0,-1
19,3,3,-1,-1,1395,0.9,1,-1
20,3,3,-1,-1,1353,0.95,1,-1
21,3,3,-1,-1,1050,0.6,1,-1
22,3,3,-1,-1,725,1,1,-1
23,3,3,-1,-1,1594,0.55,1,-1
24,3,3,-1,-1,1189,0.65,0,-1
25,3,3,-1,-1,912,0.55,1,-1
26,3,3,-1,-1,882,1,1,-1
27,3,3,-1,-1,1604,0.75,1,-1
28,3,3,-1,-1,1163,0.9,1,-1
29,3,3,-1,-1,2045,1,1,-1
30,3,3,-1,-1,677,0.95,1,-1
1,1,3,1,1,827,0.55,1,1
2,1,3,1,1,535,0.75,1,1
3,1,3,1,1,381,1,0,1
4,1,3,1,1,624,0.65,1,1
5,1,3,1,1,811,0.7,0,1
6,1,3,1,1,609,0.8,1,1
7,1,3,1,1,759,0.5,1,1
8,1,3,1,1,380,0.7,0,1
9,1,3,1,1,NaN,0.5,NaN,1
10,1,3,1,1,411,0.85,1,1
11,1,3,1,1,692,0.9,1,1
12,1,3,1,1,636,0.5,1,1
13,1,3,1,1,2160,0.95,1,-1
14,1,3,1,1,1220,1,1,-1
15,1,3,1,1,1298,0.65,1,-1
16,1,3,1,1,1711,0.7,1,-1
17,1,3,1,1,1436,0.8,0,-1
18,1,3,1,1,1140,0.65,1,-1
19,1,3,1,1,1663,0.8,0,-1
20,1,3,1,1,851,0.7,1,-1
21,1,3,1,1,1493,0.6,1,-1
22,1,3,1,1,1796,0.75,1,-1
23,1,3,1,1,877,0.5,0,-1
24,1,3,1,1,553,0.6,1,-1
25,1,3,1,1,2023,0.5,0,-1
26,1,3,1,1,2850,0.5,1,-1
27,1,3,1,1,1698,0.9,0,-1
28,1,3,1,1,1517,0.8,0,-1
29,1,3,1,1,1450,0.5,1,-1
30,1,3,1,1,984,0.95,1,-1
1,2,3,1,1,400,0.5,0,1
2,2,3,1,1,751,0.6,1,1
3,2,3,1,1,400,0.9,1,1
4,2,3,1,1,412,0.6,1,1
5,2,3,1,1,579,0.6,1,1
6,2,3,1,1,NaN,0.8,NaN,1
7,2,3,1,1,499,0.9,1,1
8,2,3,1,1,412,0.5,0,1
9,2,3,1,1,708,0.6,1,1
10,2,3,1,1,417,0.95,1,1
11,2,3,1,1,NaN,0.75,NaN,1
12,2,3,1,1,556,0.5,1,1
13,2,3,1,1,1941,0.9,0,-1
14,2,3,1,1,1005,0.7,1,-1
15,2,3,1,1,1291,0.65,1,-1
16,2,3,1,1,1853,0.55,1,-1
17,2,3,1,1,1281,0.65,0,-1
18,2,3,1,1,1041,0.7,0,-1
19,2,3,1,1,1094,0.8,1,-1
20,2,3,1,1,1125,0.7,1,-1
21,2,3,1,1,1256,0.75,1,-1
22,2,3,1,1,1830,0.65,0,-1
23,2,3,1,1,1129,0.65,1,-1
24,2,3,1,1,1037,0.9,0,-1
25,2,3,1,1,1037,0.6,0,-1
26,2,3,1,1,1123,0.5,1,-1
27,2,3,1,1,1737,0.85,0,-1
28,2,3,1,1,1673,0.5,1,-1
29,2,3,1,1,1148,0.5,1,-1
30,2,3,1,1,941,0.75,0,-1
1,3,3,1,1,442,0.55,0,1
2,3,3,1,1,711,0.55,1,1
3,3,3,1,1,396,0.7,1,1
4,3,3,1,1,650,0.5,1,1
5,3,3,1,1,520,0.8,1,1
6,3,3,1,1,413,0.8,1,1
7,3,3,1,1,504,1,1,1
8,3,3,1,1,375,0.5,1,1
9,3,3,1,1,646,0.55,1,1
10,3,3,1,1,410,0.85,0,1
11,3,3,1,1,553,0.85,0,1
12,3,3,1,1,403,0.5,1,1
13,3,3,1,1,1895,1,1,-1
14,3,3,1,1,1121,0.55,0,-1
15,3,3,1,1,2372,0.65,0,-1
16,3,3,1,1,1080,0.55,1,-1
17,3,3,1,1,2054,0.65,0,-1
18,3,3,1,1,1217,0.65,1,-1
19,3,3,1,1,986,0.65,1,-1
20,3,3,1,1,1300,0.65,0,-1
21,3,3,1,1,954,0.6,0,-1
22,3,3,1,1,1795,0.6,1,-1
23,3,3,1,1,1119,0.6,1,-1
24,3,3,1,1,914,0.5,1,-1
25,3,3,1,1,861,0.6,1,-1
26,3,3,1,1,1451,0.5,1,-1
27,3,3,1,1,1868,0.85,0,-1
28,3,3,1,1,1573,0.6,0,-1
29,3,3,1,1,2236,0.5,1,-1
30,3,3,1,1,875,0.9,1,-1
1,1,3,1,-1,396,0.6,0,1
2,1,3,1,-1,703,0.7,1,1
3,1,3,1,-1,390,0.8,1,1
4,1,3,1,-1,711,1,1,1
5,1,3,1,-1,923,0.6,0,1
6,1,3,1,-1,490,0.75,0,1
7,1,3,1,-1,718,0.65,1,1
8,1,3,1,-1,472,0.75,0,1
9,1,3,1,-1,429,0.6,0,1
10,1,3,1,-1,431,0.75,1,1
11,1,3,1,-1,793,0.65,0,1
12,1,3,1,-1,419,0.5,0,1
13,1,3,1,-1,777,0.8,0,-1
14,1,3,1,-1,1127,0.5,1,-1
15,1,3,1,-1,2675,0.6,1,-1
16,1,3,1,-1,2048,0.7,1,-1
17,1,3,1,-1,1358,0.8,1,-1
18,1,3,1,-1,1700,0.7,1,-1
19,1,3,1,-1,1526,0.7,0,-1
20,1,3,1,-1,1834,0.8,1,-1
21,1,3,1,-1,1018,0.6,0,-1
22,1,3,1,-1,2052,0.8,1,-1
23,1,3,1,-1,1011,0.65,1,-1
24,1,3,1,-1,469,0.7,0,-1
25,1,3,1,-1,1532,0.75,1,-1
26,1,3,1,-1,1369,0.5,1,-1
27,1,3,1,-1,2373,0.6,1,-1
28,1,3,1,-1,1258,0.65,0,-1
29,1,3,1,-1,1850,0.5,1,-1
30,1,3,1,-1,852,0.9,0,-1
1,2,3,1,-1,389,0.55,1,1
2,2,3,1,-1,620,0.65,1,1
3,2,3,1,-1,451,0.85,1,1
4,2,3,1,-1,402,0.65,1,1
5,2,3,1,-1,610,0.5,0,1
6,2,3,1,-1,493,0.8,1,1
7,2,3,1,-1,457,0.75,1,1
8,2,3,1,-1,418,0.55,1,1
9,2,3,1,-1,606,0.6,1,1
10,2,3,1,-1,438,0.7,1,1
11,2,3,1,-1,621,0.85,1,1
12,2,3,1,-1,401,0.5,0,1
13,2,3,1,-1,2298,0.85,1,-1
14,2,3,1,-1,2206,0.6,1,-1
15,2,3,1,-1,2471,0.6,1,-1
16,2,3,1,-1,2150,0.55,1,-1
17,2,3,1,-1,2142,0.65,0,-1
18,2,3,1,-1,784,0.7,1,-1
19,2,3,1,-1,1205,0.8,1,-1
20,2,3,1,-1,2530,0.7,0,-1
21,2,3,1,-1,1554,0.65,0,-1
22,2,3,1,-1,1347,1,1,-1
23,2,3,1,-1,NaN,0.6,NaN,-1
24,2,3,1,-1,829,0.75,0,-1
25,2,3,1,-1,2332,0.65,0,-1
26,2,3,1,-1,938,1,1,-1
27,2,3,1,-1,1928,0.7,1,-1
28,2,3,1,-1,1521,0.65,1,-1
29,2,3,1,-1,1792,0.5,1,-1
30,2,3,1,-1,728,0.9,1,-1
1,3,3,1,-1,375,0.55,1,1
2,3,3,1,-1,574,0.6,1,1
3,3,3,1,-1,505,0.7,1,1
4,3,3,1,-1,450,1,1,1
5,3,3,1,-1,487,0.9,1,1
6,3,3,1,-1,438,0.6,1,1
7,3,3,1,-1,548,0.5,1,1
8,3,3,1,-1,397,0.5,0,1
9,3,3,1,-1,483,0.5,1,1
10,3,3,1,-1,392,0.8,1,1
11,3,3,1,-1,503,0.65,0,1
12,3,3,1,-1,361,0.5,1,1
13,3,3,1,-1,1992,1,0,-1
14,3,3,1,-1,2103,0.55,1,-1
15,3,3,1,-1,1194,0.65,0,-1
16,3,3,1,-1,939,0.55,1,-1
17,3,3,1,-1,986,0.65,1,-1
18,3,3,1,-1,653,0.75,1,-1
19,3,3,1,-1,779,0.85,1,-1
20,3,3,1,-1,1580,0.85,0,-1
21,3,3,1,-1,917,0.65,1,-1
22,3,3,1,-1,1271,1,1,-1
23,3,3,1,-1,1125,0.55,1,-1
24,3,3,1,-1,1376,0.9,1,-1
25,3,3,1,-1,1003,0.65,1,-1
26,3,3,1,-1,833,1,1,-1
27,3,3,1,-1,985,0.8,1,-1
28,3,3,1,-1,1009,0.8,1,-1
29,3,3,1,-1,1749,0.5,1,-1
30,3,3,1,-1,812,0.95,1,-1
1,1,4,-1,1,464,0.6,1,1
2,1,4,-1,1,516,0.8,1,1
3,1,4,-1,1,461,0.7,1,1
4,1,4,-1,1,643,1,0,1
5,1,4,-1,1,382,0.6,0,1
6,1,4,-1,1,NaN,0.8,NaN,1
7,1,4,-1,1,500,0.6,0,1
8,1,4,-1,1,442,0.9,0,1
9,1,4,-1,1,396,0.7,0,1
10,1,4,-1,1,499,0.85,1,1
11,1,4,-1,1,898,1,1,1
12,1,4,-1,1,403,0.55,1,1
13,1,4,-1,1,1149,0.9,1,-1
14,1,4,-1,1,1309,0.8,0,-1
15,1,4,-1,1,2975,0.65,1,-1
16,1,4,-1,1,1505,0.65,1,-1
17,1,4,-1,1,1492,0.7,1,-1
18,1,4,-1,1,892,0.8,0,-1
19,1,4,-1,1,2147,0.8,1,-1
20,1,4,-1,1,1145,0.7,0,-1
21,1,4,-1,1,882,1,1,-1
22,1,4,-1,1,928,0.65,1,-1
23,1,4,-1,1,599,0.65,1,-1
24,1,4,-1,1,420,0.7,0,-1
25,1,4,-1,1,883,0.75,0,-1
26,1,4,-1,1,1560,0.5,0,-1
27,1,4,-1,1,1413,0.65,1,-1
28,1,4,-1,1,1978,0.8,1,-1
29,1,4,-1,1,1287,0.5,0,-1
30,1,4,-1,1,911,0.9,1,-1
1,2,4,-1,1,435,0.6,1,1
2,2,4,-1,1,562,0.7,0,1
3,2,4,-1,1,561,0.75,1,1
4,2,4,-1,1,527,0.75,1,1
5,2,4,-1,1,559,0.85,1,1
6,2,4,-1,1,482,0.8,0,1
7,2,4,-1,1,438,1,1,1
8,2,4,-1,1,304,0.95,0,1
9,2,4,-1,1,597,0.75,1,1
10,2,4,-1,1,374,1,1,1
11,2,4,-1,1,455,0.65,1,1
12,2,4,-1,1,353,0.5,1,1
13,2,4,-1,1,1777,0.75,1,-1
14,2,4,-1,1,2440,0.5,0,-1
15,2,4,-1,1,800,0.95,1,-1
16,2,4,-1,1,932,0.7,1,-1
17,2,4,-1,1,744,0.8,1,-1
18,2,4,-1,1,2486,0.7,1,-1
19,2,4,-1,1,1304,0.85,1,-1
20,2,4,-1,1,559,1,1,-1
21,2,4,-1,1,937,0.7,1,-1
22,2,4,-1,1,2055,0.55,1,-1
23,2,4,-1,1,1374,0.6,0,-1
24,2,4,-1,1,556,0.9,1,-1
25,2,4,-1,1,1431,0.65,1,-1
26,2,4,-1,1,1582,0.5,1,-1
27,2,4,-1,1,1464,0.75,1,-1
28,2,4,-1,1,2342,0.8,1,-1
29,2,4,-1,1,963,0.55,0,-1
30,2,4,-1,1,754,1,0,-1
1,3,4,-1,1,280,0.65,1,1
2,3,4,-1,1,512,0.65,1,1
3,3,4,-1,1,391,0.8,1,1
4,3,4,-1,1,407,1,1,1
5,3,4,-1,1,486,1,1,1
6,3,4,-1,1,698,0.9,0,1
7,3,4,-1,1,549,1,1,1
8,3,4,-1,1,356,0.9,1,1
9,3,4,-1,1,551,0.65,1,1
10,3,4,-1,1,441,0.85,0,1
11,3,4,-1,1,424,0.7,1,1
12,3,4,-1,1,328,0.5,0,1
13,3,4,-1,1,2271,1,1,-1
14,3,4,-1,1,1586,0.55,0,-1
15,3,4,-1,1,1273,0.8,0,-1
16,3,4,-1,1,1039,0.85,1,-1
17,3,4,-1,1,1603,0.6,1,-1
18,3,4,-1,1,815,0.7,1,-1
19,3,4,-1,1,916,0.8,1,-1
20,3,4,-1,1,1754,0.85,0,-1
21,3,4,-1,1,1355,0.75,0,-1
22,3,4,-1,1,870,0.7,1,-1
23,3,4,-1,1,1220,0.7,1,-1
24,3,4,-1,1,1153,0.95,0,-1
25,3,4,-1,1,934,0.85,1,-1
26,3,4,-1,1,1732,0.5,0,-1
27,3,4,-1,1,807,0.85,1,-1
28,3,4,-1,1,804,0.8,1,-1
29,3,4,-1,1,1205,1,1,-1
30,3,4,-1,1,750,0.9,1,-1
1,1,4,-1,-1,NaN,0.55,NaN,1
2,1,4,-1,-1,637,0.75,0,1
3,1,4,-1,-1,509,0.85,0,1
4,1,4,-1,-1,624,1,1,1
5,1,4,-1,-1,NaN,0.5,NaN,1
6,1,4,-1,-1,392,0.75,1,1
7,1,4,-1,-1,459,0.6,1,1
8,1,4,-1,-1,449,0.7,0,1
9,1,4,-1,-1,496,0.7,1,1
10,1,4,-1,-1,391,0.9,1,1
11,1,4,-1,-1,615,0.9,0,1
12,1,4,-1,-1,522,0.55,1,1
13,1,4,-1,-1,1831,0.9,0,-1
14,1,4,-1,-1,1684,1,1,-1
15,1,4,-1,-1,2164,0.75,0,-1
16,1,4,-1,-1,1402,0.75,0,-1
17,1,4,-1,-1,924,0.8,1,-1
18,1,4,-1,-1,1792,0.75,1,-1
19,1,4,-1,-1,1969,0.75,0,-1
20,1,4,-1,-1,1219,0.7,0,-1
21,1,4,-1,-1,1672,0.6,1,-1
22,1,4,-1,-1,1584,1,1,-1
23,1,4,-1,-1,646,0.5,1,-1
24,1,4,-1,-1,859,0.7,1,-1
25,1,4,-1,-1,1045,0.75,1,-1
26,1,4,-1,-1,1881,0.5,0,-1
27,1,4,-1,-1,1935,1,1,-1
28,1,4,-1,-1,1357,0.8,1,-1
29,1,4,-1,-1,2372,0.5,1,-1
30,1,4,-1,-1,795,1,0,-1
1,2,4,-1,-1,376,0.55,0,1
2,2,4,-1,-1,534,0.7,1,1
3,2,4,-1,-1,356,0.8,1,1
4,2,4,-1,-1,541,0.8,1,1
5,2,4,-1,-1,808,0.95,0,1
6,2,4,-1,-1,618,0.9,1,1
7,2,4,-1,-1,492,1,1,1
8,2,4,-1,-1,417,1,1,1
9,2,4,-1,-1,855,0.8,1,1
10,2,4,-1,-1,386,1,1,1
11,2,4,-1,-1,512,0.8,0,1
12,2,4,-1,-1,469,0.5,1,1
13,2,4,-1,-1,2261,0.8,0,-1
14,2,4,-1,-1,1459,0.8,1,-1
15,2,4,-1,-1,1406,0.75,0,-1
16,2,4,-1,-1,1317,0.85,1,-1
17,2,4,-1,-1,1029,0.8,1,-1
18,2,4,-1,-1,820,0.65,0,-1
19,2,4,-1,-1,1289,0.8,0,-1
20,2,4,-1,-1,1103,0.75,1,-1
21,2,4,-1,-1,1300,0.75,1,-1
22,2,4,-1,-1,1057,1,1,-1
23,2,4,-1,-1,1083,0.6,1,-1
24,2,4,-1,-1,1036,0.75,1,-1
25,2,4,-1,-1,786,0.6,1,-1
26,2,4,-1,-1,859,0.5,0,-1
27,2,4,-1,-1,1277,0.85,1,-1
28,2,4,-1,-1,1907,0.8,0,-1
29,2,4,-1,-1,684,0.6,1,-1
30,2,4,-1,-1,684,1,1,-1
1,3,4,-1,-1,373,0.55,1,1
2,3,4,-1,-1,570,0.65,1,1
3,3,4,-1,-1,428,0.75,1,1
4,3,4,-1,-1,447,0.9,1,1
5,3,4,-1,-1,411,1,1,1
6,3,4,-1,-1,434,0.8,1,1
7,3,4,-1,-1,545,0.8,1,1
8,3,4,-1,-1,429,0.6,1,1
9,3,4,-1,-1,528,0.6,1,1
10,3,4,-1,-1,371,0.7,1,1
11,3,4,-1,-1,849,0.7,0,1
12,3,4,-1,-1,423,0.5,1,1
13,3,4,-1,-1,1420,0.85,1,-1
14,3,4,-1,-1,936,0.75,1,-1
15,3,4,-1,-1,1313,0.8,1,-1
16,3,4,-1,-1,874,0.8,1,-1
17,3,4,-1,-1,733,0.9,1,-1
18,3,4,-1,-1,527,0.65,0,-1
19,3,4,-1,-1,1769,0.95,1,-1
20,3,4,-1,-1,730,0.9,0,-1
21,3,4,-1,-1,524,0.6,0,-1
22,3,4,-1,-1,909,1,1,-1
23,3,4,-1,-1,2390,0.55,0,-1
24,3,4,-1,-1,672,0.95,0,-1
25,3,4,-1,-1,984,0.65,1,-1
26,3,4,-1,-1,1094,1,1,-1
27,3,4,-1,-1,2672,0.8,1,-1
28,3,4,-1,-1,887,0.9,1,-1
29,3,4,-1,-1,689,1,1,-1
30,3,4,-1,-1,656,0.95,1,-1
1,1,4,1,1,447,0.55,0,1
2,1,4,1,1,763,0.65,1,1
3,1,4,1,1,411,1,0,1
4,1,4,1,1,500,0.8,1,1
5,1,4,1,1,NaN,0.6,NaN,1
6,1,4,1,1,600,0.8,0,1
7,1,4,1,1,517,0.6,1,1
8,1,4,1,1,607,0.55,1,1
9,1,4,1,1,771,0.75,0,1
10,1,4,1,1,767,0.75,1,1
11,1,4,1,1,610,0.85,1,1
12,1,4,1,1,514,0.5,0,1
13,1,4,1,1,1657,0.8,0,-1
14,1,4,1,1,1167,0.5,1,-1
15,1,4,1,1,1578,0.75,1,-1
16,1,4,1,1,NaN,0.75,NaN,-1
17,1,4,1,1,1212,0.8,1,-1
18,1,4,1,1,1950,0.7,0,-1
19,1,4,1,1,1949,0.7,1,-1
20,1,4,1,1,1582,0.75,0,-1
21,1,4,1,1,984,0.75,1,-1
22,1,4,1,1,2840,0.75,1,-1
23,1,4,1,1,840,0.6,0,-1
24,1,4,1,1,503,0.65,1,-1
25,1,4,1,1,1782,0.5,0,-1
26,1,4,1,1,1683,0.5,1,-1
27,1,4,1,1,1840,0.85,0,-1
28,1,4,1,1,1215,0.75,0,-1
29,1,4,1,1,2442,0.5,1,-1
30,1,4,1,1,1075,0.9,1,-1
1,2,4,1,1,397,0.5,0,1
2,2,4,1,1,610,0.65,1,1
3,2,4,1,1,371,0.9,1,1
4,2,4,1,1,423,0.7,0,1
5,2,4,1,1,474,0.75,1,1
6,2,4,1,1,NaN,0.8,NaN,1
7,2,4,1,1,457,0.75,1,1
8,2,4,1,1,433,0.5,1,1
9,2,4,1,1,531,0.7,1,1
10,2,4,1,1,430,0.9,1,1
11,2,4,1,1,521,0.75,1,1
12,2,4,1,1,955,0.5,1,1
13,2,4,1,1,1939,0.9,1,-1
14,2,4,1,1,1905,1,1,-1
15,2,4,1,1,1150,0.85,1,-1
16,2,4,1,1,1117,0.6,0,-1
17,2,4,1,1,2566,0.6,0,-1
18,2,4,1,1,711,0.65,1,-1
19,2,4,1,1,1029,0.8,1,-1
20,2,4,1,1,1416,0.7,0,-1
21,2,4,1,1,1201,0.75,0,-1
22,2,4,1,1,1785,0.55,1,-1
23,2,4,1,1,1857,0.5,1,-1
24,2,4,1,1,1111,0.7,0,-1
25,2,4,1,1,1534,0.6,0,-1
26,2,4,1,1,1816,0.5,1,-1
27,2,4,1,1,1539,0.85,0,-1
28,2,4,1,1,NaN,0.5,NaN,-1
29,2,4,1,1,1162,0.5,1,-1
30,2,4,1,1,1482,0.95,0,-1
1,3,4,1,1,320,0.55,0,1
2,3,4,1,1,606,0.6,1,1
3,3,4,1,1,471,0.8,1,1
4,3,4,1,1,588,0.55,1,1
5,3,4,1,1,507,1,1,1
6,3,4,1,1,397,0.85,1,1
7,3,4,1,1,410,1,1,1
8,3,4,1,1,367,0.95,1,1
9,3,4,1,1,825,0.65,1,1
10,3,4,1,1,670,0.75,0,1
11,3,4,1,1,766,0.6,1,1
12,3,4,1,1,440,0.5,1,1
13,3,4,1,1,1200,1,1,-1
14,3,4,1,1,1340,0.55,0,-1
15,3,4,1,1,1606,0.65,1,-1
16,3,4,1,1,1074,0.55,1,-1
17,3,4,1,1,2154,0.6,1,-1
18,3,4,1,1,974,0.7,1,-1
19,3,4,1,1,884,0.8,1,-1
20,3,4,1,1,813,0.7,0,-1
21,3,4,1,1,1081,0.65,0,-1
22,3,4,1,1,1954,0.65,1,-1
23,3,4,1,1,929,0.6,1,-1
24,3,4,1,1,937,0.5,0,-1
25,3,4,1,1,2130,0.6,1,-1
26,3,4,1,1,2062,0.5,0,-1
27,3,4,1,1,2170,0.65,0,-1
28,3,4,1,1,1242,0.8,1,-1
29,3,4,1,1,1981,0.5,1,-1
30,3,4,1,1,802,0.95,1,-1
1,1,4,1,-1,445,0.55,1,1
2,1,4,1,-1,657,0.9,1,1
3,1,4,1,-1,800,0.75,0,1
4,1,4,1,-1,581,0.95,1,1
5,1,4,1,-1,619,0.6,1,1
6,1,4,1,-1,522,0.7,1,1
7,1,4,1,-1,432,0.7,1,1
8,1,4,1,-1,536,0.8,1,1
9,1,4,1,-1,437,0.8,1,1
10,1,4,1,-1,442,0.9,0,1
11,1,4,1,-1,891,0.6,1,1
12,1,4,1,-1,481,0.55,0,1
13,1,4,1,-1,1343,0.6,1,-1
14,1,4,1,-1,925,1,1,-1
15,1,4,1,-1,2160,0.65,0,-1
16,1,4,1,-1,788,0.55,1,-1
17,1,4,1,-1,1246,0.65,1,-1
18,1,4,1,-1,1875,0.75,0,-1
19,1,4,1,-1,1531,0.7,0,-1
20,1,4,1,-1,1193,0.85,1,-1
21,1,4,1,-1,1039,0.75,0,-1
22,1,4,1,-1,2336,1,1,-1
23,1,4,1,-1,806,0.7,1,-1
24,1,4,1,-1,78,0.55,0,-1
25,1,4,1,-1,2306,0.6,0,-1
26,1,4,1,-1,1515,0.5,1,-1
27,1,4,1,-1,1436,0.8,0,-1
28,1,4,1,-1,1138,0.55,1,-1
29,1,4,1,-1,1536,0.5,1,-1
30,1,4,1,-1,1089,0.85,0,-1
1,2,4,1,-1,487,0.55,1,1
2,2,4,1,-1,551,0.7,1,1
3,2,4,1,-1,437,0.9,1,1
4,2,4,1,-1,390,0.75,1,1
5,2,4,1,-1,686,0.55,1,1
6,2,4,1,-1,462,0.7,1,1
7,2,4,1,-1,549,0.9,1,1
8,2,4,1,-1,418,0.5,1,1
9,2,4,1,-1,452,0.7,1,1
10,2,4,1,-1,442,0.85,1,1
11,2,4,1,-1,526,0.8,1,1
12,2,4,1,-1,461,0.5,0,1
13,2,4,1,-1,1754,0.6,0,-1
14,2,4,1,-1,1609,0.85,1,-1
15,2,4,1,-1,1269,0.9,1,-1
16,2,4,1,-1,1081,0.55,1,-1
17,2,4,1,-1,1188,0.75,1,-1
18,2,4,1,-1,1932,0.6,1,-1
19,2,4,1,-1,1069,0.85,1,-1
20,2,4,1,-1,800,0.65,1,-1
21,2,4,1,-1,1942,0.75,1,-1
22,2,4,1,-1,1163,1,1,-1
23,2,4,1,-1,1491,0.6,1,-1
24,2,4,1,-1,1517,0.8,0,-1
25,2,4,1,-1,1235,0.6,1,-1
26,2,4,1,-1,1100,1,1,-1
27,2,4,1,-1,1504,0.75,0,-1
28,2,4,1,-1,1804,0.8,1,-1
29,2,4,1,-1,1868,0.5,1,-1
30,2,4,1,-1,904,0.95,1,-1
1,3,4,1,-1,348,0.55,1,1
2,3,4,1,-1,565,0.6,1,1
3,3,4,1,-1,480,0.75,1,1
4,3,4,1,-1,587,1,1,1
5,3,4,1,-1,510,1,1,1
6,3,4,1,-1,336,0.85,1,1
7,3,4,1,-1,474,0.8,1,1
8,3,4,1,-1,320,0.6,1,1
9,3,4,1,-1,539,0.6,1,1
10,3,4,1,-1,338,0.6,1,1
11,3,4,1,-1,435,1,0,1
12,3,4,1,-1,651,0.5,0,1
13,3,4,1,-1,1772,1,0,-1
14,3,4,1,-1,1035,0.55,1,-1
15,3,4,1,-1,991,0.8,1,-1
16,3,4,1,-1,780,0.55,1,-1
17,3,4,1,-1,911,0.85,1,-1
18,3,4,1,-1,1336,0.65,1,-1
19,3,4,1,-1,1196,0.8,1,-1
20,3,4,1,-1,1231,0.7,0,-1
21,3,4,1,-1,1562,0.6,0,-1
22,3,4,1,-1,755,1,1,-1
23,3,4,1,-1,1679,0.55,1,-1
24,3,4,1,-1,917,0.95,1,-1
25,3,4,1,-1,1114,0.65,1,-1
26,3,4,1,-1,995,1,1,-1
27,3,4,1,-1,1786,0.85,1,-1
28,3,4,1,-1,1375,0.9,1,-1
29,3,4,1,-1,2317,0.5,0,-1
30,3,4,1,-1,1692,0.95,1,-1
1,1,5,-1,1,360,0.55,1,1
2,1,5,-1,1,599,0.8,1,1
3,1,5,-1,1,680,0.65,0,1
4,1,5,-1,1,635,0.55,0,1
5,1,5,-1,1,610,0.6,0,1
6,1,5,-1,1,589,0.9,1,1
7,1,5,-1,1,456,0.6,1,1
8,1,5,-1,1,290,0.9,1,1
9,1,5,-1,1,499,0.75,0,1
10,1,5,-1,1,427,0.95,1,1
11,1,5,-1,1,565,1,0,1
12,1,5,-1,1,425,0.55,1,1
13,1,5,-1,1,1062,0.85,1,-1
14,1,5,-1,1,778,0.7,0,-1
15,1,5,-1,1,1874,0.75,0,-1
16,1,5,-1,1,1369,0.7,0,-1
17,1,5,-1,1,1142,0.75,1,-1
18,1,5,-1,1,758,0.75,0,-1
19,1,5,-1,1,1644,0.85,1,-1
20,1,5,-1,1,915,0.7,0,-1
21,1,5,-1,1,1553,0.9,1,-1
22,1,5,-1,1,875,0.75,1,-1
23,1,5,-1,1,875,0.7,1,-1
24,1,5,-1,1,429,0.7,1,-1
25,1,5,-1,1,834,0.7,0,-1
26,1,5,-1,1,2406,0.5,0,-1
27,1,5,-1,1,2339,0.85,1,-1
28,1,5,-1,1,1999,0.6,0,-1
29,1,5,-1,1,2470,0.5,1,-1
30,1,5,-1,1,1116,0.9,1,-1
1,2,5,-1,1,420,0.65,1,1
2,2,5,-1,1,540,0.75,0,1
3,2,5,-1,1,386,0.9,1,1
4,2,5,-1,1,416,0.9,1,1
5,2,5,-1,1,455,0.9,1,1
6,2,5,-1,1,355,0.8,0,1
7,2,5,-1,1,456,1,1,1
8,2,5,-1,1,878,1,1,1
9,2,5,-1,1,499,0.85,1,1
10,2,5,-1,1,413,0.95,1,1
11,2,5,-1,1,497,0.85,1,1
12,2,5,-1,1,444,0.5,1,1
13,2,5,-1,1,1275,0.8,1,-1
14,2,5,-1,1,NaN,0.7,NaN,-1
15,2,5,-1,1,944,0.95,1,-1
16,2,5,-1,1,918,0.9,1,-1
17,2,5,-1,1,1288,0.75,0,-1
18,2,5,-1,1,951,0.7,1,-1
19,2,5,-1,1,1460,0.85,1,-1
20,2,5,-1,1,560,0.95,1,-1
21,2,5,-1,1,830,0.85,1,-1
22,2,5,-1,1,1669,0.65,1,-1
23,2,5,-1,1,1216,0.6,0,-1
24,2,5,-1,1,799,0.8,1,-1
25,2,5,-1,1,1201,0.65,1,-1
26,2,5,-1,1,762,1,1,-1
27,2,5,-1,1,2368,0.65,0,-1
28,2,5,-1,1,1360,0.5,0,-1
29,2,5,-1,1,1765,0.5,0,-1
30,2,5,-1,1,763,1,0,-1
1,3,5,-1,1,393,0.75,1,1
2,3,5,-1,1,473,0.65,1,1
3,3,5,-1,1,397,0.9,1,1
4,3,5,-1,1,736,1,1,1
5,3,5,-1,1,448,1,1,1
6,3,5,-1,1,413,0.85,0,1
7,3,5,-1,1,489,1,1,1
8,3,5,-1,1,469,0.9,1,1
9,3,5,-1,1,537,0.7,1,1
10,3,5,-1,1,391,0.8,0,1
11,3,5,-1,1,363,0.85,1,1
12,3,5,-1,1,357,0.5,0,1
13,3,5,-1,1,1151,1,1,-1
14,3,5,-1,1,1214,0.65,1,-1
15,3,5,-1,1,1929,0.85,0,-1
16,3,5,-1,1,928,0.9,1,-1
17,3,5,-1,1,972,0.65,1,-1
18,3,5,-1,1,548,0.7,1,-1
19,3,5,-1,1,1349,0.95,1,-1
20,3,5,-1,1,1446,0.9,0,-1
21,3,5,-1,1,838,0.8,0,-1
22,3,5,-1,1,1037,0.8,1,-1
23,3,5,-1,1,994,0.75,1,-1
24,3,5,-1,1,682,0.75,0,-1
25,3,5,-1,1,963,0.7,1,-1
26,3,5,-1,1,1981,0.5,1,-1
27,3,5,-1,1,2177,0.8,0,-1
28,3,5,-1,1,743,0.85,1,-1
29,3,5,-1,1,1884,1,1,-1
30,3,5,-1,1,640,1,1,-1
1,1,5,-1,-1,703,0.55,0,1
2,1,5,-1,-1,629,0.7,1,1
3,1,5,-1,-1,672,0.75,0,1
4,1,5,-1,-1,603,0.55,1,1
5,1,5,-1,-1,871,0.6,0,1
6,1,5,-1,-1,948,0.85,1,1
7,1,5,-1,-1,612,0.75,1,1
8,1,5,-1,-1,403,0.9,1,1
9,1,5,-1,-1,478,0.8,1,1
10,1,5,-1,-1,436,0.9,1,1
11,1,5,-1,-1,517,0.9,1,1
12,1,5,-1,-1,364,0.6,1,1
13,1,5,-1,-1,1640,0.9,0,-1
14,1,5,-1,-1,1360,1,1,-1
15,1,5,-1,-1,1428,0.7,0,-1
16,1,5,-1,-1,681,0.8,0,-1
17,1,5,-1,-1,879,0.85,1,-1
18,1,5,-1,-1,988,0.75,1,-1
19,1,5,-1,-1,1604,0.85,1,-1
20,1,5,-1,-1,1053,0.7,0,-1
21,1,5,-1,-1,1954,0.75,0,-1
22,1,5,-1,-1,1496,1,1,-1
23,1,5,-1,-1,762,0.65,1,-1
24,1,5,-1,-1,479,0.65,1,-1
25,1,5,-1,-1,964,0.75,1,-1
26,1,5,-1,-1,2870,0.5,0,-1
27,1,5,-1,-1,1741,1,1,-1
28,1,5,-1,-1,695,0.8,1,-1
29,1,5,-1,-1,1829,0.5,0,-1
30,1,5,-1,-1,727,0.95,0,-1
1,2,5,-1,-1,410,0.55,0,1
2,2,5,-1,-1,601,0.85,1,1
3,2,5,-1,-1,415,0.9,1,1
4,2,5,-1,-1,561,0.85,1,1
5,2,5,-1,-1,474,0.75,0,1
6,2,5,-1,-1,414,0.8,1,1
7,2,5,-1,-1,502,1,1,1
8,2,5,-1,-1,428,1,1,1
9,2,5,-1,-1,634,0.85,1,1
10,2,5,-1,-1,357,0.95,1,1
11,2,5,-1,-1,807,0.85,1,1
12,2,5,-1,-1,599,0.5,1,1
13,2,5,-1,-1,1377,0.85,1,-1
14,2,5,-1,-1,1179,0.9,1,-1
15,2,5,-1,-1,1364,0.85,0,-1
16,2,5,-1,-1,846,0.8,1,-1
17,2,5,-1,-1,1332,0.85,1,-1
18,2,5,-1,-1,1355,0.7,0,-1
19,2,5,-1,-1,1010,0.85,1,-1
20,2,5,-1,-1,1027,0.9,1,-1
21,2,5,-1,-1,1049,0.8,1,-1
22,2,5,-1,-1,844,1,1,-1
23,2,5,-1,-1,851,0.8,1,-1
24,2,5,-1,-1,878,0.85,1,-1
25,2,5,-1,-1,949,0.75,1,-1
26,2,5,-1,-1,1020,0.9,1,-1
27,2,5,-1,-1,1083,0.85,1,-1
28,2,5,-1,-1,2275,0.8,1,-1
29,2,5,-1,-1,922,0.7,1,-1
30,2,5,-1,-1,764,1,1,-1
1,3,5,-1,-1,485,0.75,1,1
2,3,5,-1,-1,570,0.7,1,1
3,3,5,-1,-1,397,0.8,1,1
4,3,5,-1,-1,390,0.95,1,1
5,3,5,-1,-1,504,1,1,1
6,3,5,-1,-1,534,0.8,1,1
7,3,5,-1,-1,410,1,1,1
8,3,5,-1,-1,354,0.9,1,1
9,3,5,-1,-1,609,0.65,1,1
10,3,5,-1,-1,493,0.85,1,1
11,3,5,-1,-1,530,0.9,0,1
12,3,5,-1,-1,405,0.5,1,1
13,3,5,-1,-1,1147,1,1,-1
14,3,5,-1,-1,1276,0.75,1,-1
15,3,5,-1,-1,1332,0.8,1,-1
16,3,5,-1,-1,620,0.85,1,-1
17,3,5,-1,-1,811,0.9,1,-1
18,3,5,-1,-1,1632,0.65,0,-1
19,3,5,-1,-1,1353,0.9,1,-1
20,3,5,-1,-1,778,0.75,1,-1
21,3,5,-1,-1,1079,0.75,0,-1
22,3,5,-1,-1,916,1,1,-1
23,3,5,-1,-1,897,0.6,1,-1
24,3,5,-1,-1,1113,0.85,0,-1
25,3,5,-1,-1,803,0.8,1,-1
26,3,5,-1,-1,1172,1,1,-1
27,3,5,-1,-1,1471,0.8,0,-1
28,3,5,-1,-1,1007,0.7,1,-1
29,3,5,-1,-1,1884,1,1,-1
30,3,5,-1,-1,818,1,1,-1
1,1,5,1,1,626,0.6,0,1
2,1,5,1,1,581,0.65,0,1
3,1,5,1,1,NaN,0.5,NaN,1
4,1,5,1,1,556,0.85,1,1
5,1,5,1,1,415,0.7,0,1
6,1,5,1,1,583,0.8,0,1
7,1,5,1,1,486,0.5,1,1
8,1,5,1,1,330,0.75,0,1
9,1,5,1,1,560,0.7,1,1
10,1,5,1,1,475,0.85,0,1
11,1,5,1,1,941,0.7,0,1
12,1,5,1,1,480,0.55,1,1
13,1,5,1,1,1552,0.75,1,-1
14,1,5,1,1,1682,0.65,1,-1
15,1,5,1,1,1419,0.65,1,-1
16,1,5,1,1,1238,0.5,1,-1
17,1,5,1,1,900,0.75,0,-1
18,1,5,1,1,1779,0.75,1,-1
19,1,5,1,1,1157,0.8,0,-1
20,1,5,1,1,1560,0.7,0,-1
21,1,5,1,1,1488,0.75,1,-1
22,1,5,1,1,2537,0.6,0,-1
23,1,5,1,1,1095,0.65,0,-1
24,1,5,1,1,457,0.75,0,-1
25,1,5,1,1,1713,0.5,1,-1
26,1,5,1,1,2312,0.75,0,-1
27,1,5,1,1,1586,0.6,1,-1
28,1,5,1,1,1992,0.75,0,-1
29,1,5,1,1,1486,0.5,0,-1
30,1,5,1,1,923,0.9,1,-1
1,2,5,1,1,394,0.55,0,1
2,2,5,1,1,579,0.75,1,1
3,2,5,1,1,453,0.9,1,1
4,2,5,1,1,508,0.9,1,1
5,2,5,1,1,474,0.85,1,1
6,2,5,1,1,417,0.8,0,1
7,2,5,1,1,595,1,1,1
8,2,5,1,1,693,0.5,1,1
9,2,5,1,1,626,0.8,1,1
10,2,5,1,1,429,0.9,1,1
11,2,5,1,1,493,0.8,0,1
12,2,5,1,1,473,0.55,0,1
13,2,5,1,1,1969,0.8,1,-1
14,2,5,1,1,987,0.5,1,-1
15,2,5,1,1,766,0.9,1,-1
16,2,5,1,1,1444,0.6,0,-1
17,2,5,1,1,1342,0.6,1,-1
18,2,5,1,1,1114,0.7,0,-1
19,2,5,1,1,1198,0.85,0,-1
20,2,5,1,1,1085,0.75,0,-1
21,2,5,1,1,1125,0.75,0,-1
22,2,5,1,1,1879,0.5,0,-1
23,2,5,1,1,860,0.8,1,-1
24,2,5,1,1,863,0.9,0,-1
25,2,5,1,1,994,0.65,0,-1
26,2,5,1,1,1147,0.75,1,-1
27,2,5,1,1,1249,0.8,1,-1
28,2,5,1,1,1761,0.55,0,-1
29,2,5,1,1,1506,0.5,1,-1
30,2,5,1,1,1053,1,0,-1
1,3,5,1,1,358,0.6,1,1
2,3,5,1,1,555,0.6,1,1
3,3,5,1,1,520,0.85,1,1
4,3,5,1,1,442,0.55,0,1
5,3,5,1,1,474,1,1,1
6,3,5,1,1,477,0.75,1,1
7,3,5,1,1,463,1,1,1
8,3,5,1,1,361,0.85,0,1
9,3,5,1,1,578,0.65,1,1
10,3,5,1,1,340,0.7,1,1
11,3,5,1,1,591,0.9,1,1
12,3,5,1,1,705,0.5,1,1
13,3,5,1,1,1060,1,1,-1
14,3,5,1,1,1057,0.7,0,-1
15,3,5,1,1,1426,0.65,1,-1
16,3,5,1,1,772,0.55,1,-1
17,3,5,1,1,1366,0.6,0,-1
18,3,5,1,1,875,0.65,1,-1
19,3,5,1,1,707,0.9,1,-1
20,3,5,1,1,1729,0.7,0,-1
21,3,5,1,1,1365,0.65,0,-1
22,3,5,1,1,586,0.7,1,-1
23,3,5,1,1,966,0.65,1,-1
24,3,5,1,1,814,0.9,0,-1
25,3,5,1,1,964,0.65,1,-1
26,3,5,1,1,1436,0.5,0,-1
27,3,5,1,1,2782,0.85,1,-1
28,3,5,1,1,884,0.9,1,-1
29,3,5,1,1,2547,0.5,1,-1
30,3,5,1,1,989,0.95,1,-1
1,1,5,1,-1,407,0.7,1,1
2,1,5,1,-1,636,0.8,1,1
3,1,5,1,-1,433,0.7,1,1
4,1,5,1,-1,489,0.95,1,1
5,1,5,1,-1,606,0.6,1,1
6,1,5,1,-1,534,0.9,1,1
7,1,5,1,-1,446,0.5,0,1
8,1,5,1,-1,349,0.85,1,1
9,1,5,1,-1,846,0.8,1,1
10,1,5,1,-1,399,0.9,0,1
11,1,5,1,-1,NaN,0.6,NaN,1
12,1,5,1,-1,471,0.55,0,1
13,1,5,1,-1,991,0.9,0,-1
14,1,5,1,-1,1374,0.6,0,-1
15,1,5,1,-1,1509,0.75,1,-1
16,1,5,1,-1,1185,0.5,0,-1
17,1,5,1,-1,1193,0.75,1,-1
18,1,5,1,-1,1792,0.75,1,-1
19,1,5,1,-1,1839,0.75,1,-1
20,1,5,1,-1,1380,0.75,1,-1
21,1,5,1,-1,1542,0.75,0,-1
22,1,5,1,-1,1658,0.65,1,-1
23,1,5,1,-1,582,0.7,1,-1
24,1,5,1,-1,1189,0.7,1,-1
25,1,5,1,-1,1401,0.7,0,-1
26,1,5,1,-1,2403,0.5,1,-1
27,1,5,1,-1,1670,0.7,0,-1
28,1,5,1,-1,1947,0.5,0,-1
29,1,5,1,-1,NaN,0.5,NaN,-1
30,1,5,1,-1,1003,0.85,1,-1
1,2,5,1,-1,453,0.55,0,1
2,2,5,1,-1,651,0.7,1,1
3,2,5,1,-1,358,0.9,1,1
4,2,5,1,-1,424,0.5,0,1
5,2,5,1,-1,561,0.6,0,1
6,2,5,1,-1,377,0.75,1,1
7,2,5,1,-1,494,1,1,1
8,2,5,1,-1,464,0.5,1,1
9,2,5,1,-1,454,0.9,1,1
10,2,5,1,-1,442,0.9,1,1
11,2,5,1,-1,494,0.8,1,1
12,2,5,1,-1,500,0.5,0,1
13,2,5,1,-1,1329,0.85,1,-1
14,2,5,1,-1,1023,0.8,1,-1
15,2,5,1,-1,1685,0.95,1,-1
16,2,5,1,-1,946,0.6,1,-1
17,2,5,1,-1,2805,0.65,0,-1
18,2,5,1,-1,1063,0.7,1,-1
19,2,5,1,-1,805,0.8,1,-1
20,2,5,1,-1,800,0.85,1,-1
21,2,5,1,-1,1476,0.65,0,-1
22,2,5,1,-1,1017,1,1,-1
23,2,5,1,-1,1302,0.6,1,-1
24,2,5,1,-1,732,0.9,1,-1
25,2,5,1,-1,1265,0.6,1,-1
26,2,5,1,-1,1073,1,1,-1
27,2,5,1,-1,1503,0.8,0,-1
28,2,5,1,-1,995,0.9,1,-1
29,2,5,1,-1,1428,0.5,1,-1
30,2,5,1,-1,702,0.95,1,-1
1,3,5,1,-1,461,0.6,1,1
2,3,5,1,-1,563,0.6,1,1
3,3,5,1,-1,452,0.8,0,1
4,3,5,1,-1,380,1,1,1
5,3,5,1,-1,542,1,1,1
6,3,5,1,-1,482,0.6,0,1
7,3,5,1,-1,500,1,1,1
8,3,5,1,-1,448,0.8,1,1
9,3,5,1,-1,463,0.65,1,1
10,3,5,1,-1,344,0.85,1,1
11,3,5,1,-1,491,0.85,1,1
12,3,5,1,-1,439,0.55,1,1
13,3,5,1,-1,956,1,0,-1
14,3,5,1,-1,1072,0.7,1,-1
15,3,5,1,-1,1432,0.8,1,-1
16,3,5,1,-1,841,0.55,1,-1
17,3,5,1,-1,874,0.85,1,-1
18,3,5,1,-1,1209,0.65,1,-1
19,3,5,1,-1,728,0.9,1,-1
20,3,5,1,-1,1067,0.8,0,-1
21,3,5,1,-1,2152,0.65,1,-1
22,3,5,1,-1,981,1,1,-1
23,3,5,1,-1,1206,0.6,1,-1
24,3,5,1,-1,698,1,1,-1
25,3,5,1,-1,973,0.7,1,-1
26,3,5,1,-1,922,1,1,-1
27,3,5,1,-1,1045,0.9,1,-1
28,3,5,1,-1,938,0.8,1,-1
29,3,5,1,-1,2106,0.5,0,-1
30,3,5,1,-1,1033,0.95,1,-1
1,1,6,-1,1,387,0.6,1,1
2,1,6,-1,1,607,0.8,1,1
3,1,6,-1,1,362,0.8,1,1
4,1,6,-1,1,406,0.85,0,1
5,1,6,-1,1,489,0.75,0,1
6,1,6,-1,1,577,0.9,1,1
7,1,6,-1,1,501,0.6,1,1
8,1,6,-1,1,567,0.7,0,1
9,1,6,-1,1,436,0.6,0,1
10,1,6,-1,1,403,0.75,1,1
11,1,6,-1,1,NaN,0.7,NaN,1
12,1,6,-1,1,497,0.6,1,1
13,1,6,-1,1,2054,0.8,1,-1
14,1,6,-1,1,1452,0.95,0,-1
15,1,6,-1,1,NaN,0.5,NaN,-1
16,1,6,-1,1,801,0.75,0,-1
17,1,6,-1,1,1108,0.75,0,-1
18,1,6,-1,1,738,0.85,0,-1
19,1,6,-1,1,1537,0.85,0,-1
20,1,6,-1,1,884,0.75,1,-1
21,1,6,-1,1,968,0.9,1,-1
22,1,6,-1,1,708,0.85,1,-1
23,1,6,-1,1,632,0.8,1,-1
24,1,6,-1,1,508,0.7,0,-1
25,1,6,-1,1,755,0.75,0,-1
26,1,6,-1,1,1971,0.5,0,-1
27,1,6,-1,1,1192,0.95,1,-1
28,1,6,-1,1,1399,0.7,0,-1
29,1,6,-1,1,1209,0.5,1,-1
30,1,6,-1,1,1071,0.95,0,-1
1,2,6,-1,1,333,0.7,1,1
2,2,6,-1,1,636,0.75,0,1
3,2,6,-1,1,433,0.8,1,1
4,2,6,-1,1,508,0.85,1,1
5,2,6,-1,1,440,0.85,1,1
6,2,6,-1,1,861,0.9,0,1
7,2,6,-1,1,516,1,1,1
8,2,6,-1,1,430,1,1,1
9,2,6,-1,1,558,0.7,1,1
10,2,6,-1,1,480,0.9,1,1
11,2,6,-1,1,431,0.75,1,1
12,2,6,-1,1,639,0.5,1,1
13,2,6,-1,1,1497,0.9,1,-1
14,2,6,-1,1,1487,0.75,1,-1
15,2,6,-1,1,1081,1,1,-1
16,2,6,-1,1,708,0.9,1,-1
17,2,6,-1,1,848,0.9,1,-1
18,2,6,-1,1,724,0.9,1,-1
19,2,6,-1,1,1123,0.9,1,-1
20,2,6,-1,1,537,0.95,1,-1
21,2,6,-1,1,1009,0.9,1,-1
22,2,6,-1,1,1077,0.65,1,-1
23,2,6,-1,1,2173,0.7,1,-1
24,2,6,-1,1,1169,0.85,1,-1
25,2,6,-1,1,1518,0.7,1,-1
26,2,6,-1,1,1011,1,1,-1
27,2,6,-1,1,2205,0.7,0,-1
28,2,6,-1,1,1432,0.85,1,-1
29,2,6,-1,1,1613,0.5,1,-1
30,2,6,-1,1,590,1,0,-1
1,3,6,-1,1,400,0.55,1,1
2,3,6,-1,1,515,0.75,1,1
3,3,6,-1,1,494,0.85,1,1
4,3,6,-1,1,378,1,1,1
5,3,6,-1,1,488,1,1,1
6,3,6,-1,1,407,0.85,0,1
7,3,6,-1,1,515,1,1,1
8,3,6,-1,1,402,0.9,1,1
9,3,6,-1,1,404,0.8,1,1
10,3,6,-1,1,375,0.85,0,1
11,3,6,-1,1,554,0.9,1,1
12,3,6,-1,1,771,0.5,0,1
13,3,6,-1,1,1071,1,1,-1
14,3,6,-1,1,1012,0.85,1,-1
15,3,6,-1,1,1156,0.95,0,-1
16,3,6,-1,1,942,0.85,1,-1
17,3,6,-1,1,862,0.75,1,-1
18,3,6,-1,1,814,0.7,1,-1
19,3,6,-1,1,931,1,1,-1
20,3,6,-1,1,809,0.7,0,-1
21,3,6,-1,1,858,0.75,1,-1
22,3,6,-1,1,698,0.85,1,-1
23,3,6,-1,1,723,0.75,1,-1
24,3,6,-1,1,1269,0.85,0,-1
25,3,6,-1,1,664,0.65,1,-1
26,3,6,-1,1,1581,0.5,1,-1
27,3,6,-1,1,1752,0.8,0,-1
28,3,6,-1,1,779,0.6,1,-1
29,3,6,-1,1,1389,1,1,-1
30,3,6,-1,1,661,1,1,-1
1,1,6,-1,-1,474,0.55,0,1
2,1,6,-1,-1,650,0.7,1,1
3,1,6,-1,-1,562,0.65,1,1
4,1,6,-1,-1,485,0.7,1,1
5,1,6,-1,-1,832,0.6,0,1
6,1,6,-1,-1,601,0.85,0,1
7,1,6,-1,-1,523,1,1,1
8,1,6,-1,-1,404,0.75,0,1
9,1,6,-1,-1,696,0.6,1,1
10,1,6,-1,-1,427,0.9,1,1
11,1,6,-1,-1,536,1,0,1
12,1,6,-1,-1,450,0.6,1,1
13,1,6,-1,-1,1721,0.75,1,-1
14,1,6,-1,-1,756,1,1,-1
15,1,6,-1,-1,1764,0.7,0,-1
16,1,6,-1,-1,709,1,0,-1
17,1,6,-1,-1,1203,0.85,0,-1
18,1,6,-1,-1,963,0.8,1,-1
19,1,6,-1,-1,1372,0.8,1,-1
20,1,6,-1,-1,1475,0.65,0,-1
21,1,6,-1,-1,1242,0.8,1,-1
22,1,6,-1,-1,1843,0.5,0,-1
23,1,6,-1,-1,607,0.8,1,-1
24,1,6,-1,-1,494,0.7,1,-1
25,1,6,-1,-1,1269,0.8,1,-1
26,1,6,-1,-1,2164,0.5,0,-1
27,1,6,-1,-1,1324,0.95,1,-1
28,1,6,-1,-1,2054,0.7,1,-1
29,1,6,-1,-1,1579,0.5,1,-1
30,1,6,-1,-1,727,0.9,0,-1
1,2,6,-1,-1,376,0.65,0,1
2,2,6,-1,-1,552,0.9,1,1
3,2,6,-1,-1,429,0.9,1,1
4,2,6,-1,-1,428,1,1,1
5,2,6,-1,-1,877,0.7,1,1
6,2,6,-1,-1,584,0.9,1,1
7,2,6,-1,-1,429,1,1,1
8,2,6,-1,-1,486,1,1,1
9,2,6,-1,-1,764,0.95,1,1
10,2,6,-1,-1,358,0.95,1,1
11,2,6,-1,-1,582,0.65,1,1
12,2,6,-1,-1,437,0.55,1,1
13,2,6,-1,-1,1225,0.8,1,-1
14,2,6,-1,-1,1280,1,1,-1
15,2,6,-1,-1,2137,0.75,0,-1
16,2,6,-1,-1,732,0.85,1,-1
17,2,6,-1,-1,1353,0.85,1,-1
18,2,6,-1,-1,1047,0.65,0,-1
19,2,6,-1,-1,1261,0.8,1,-1
20,2,6,-1,-1,971,0.95,1,-1
21,2,6,-1,-1,1283,0.8,1,-1
22,2,6,-1,-1,791,1,1,-1
23,2,6,-1,-1,943,0.8,1,-1
24,2,6,-1,-1,758,0.9,1,-1
25,2,6,-1,-1,951,0.85,1,-1
26,2,6,-1,-1,843,1,1,-1
27,2,6,-1,-1,1164,0.85,1,-1
28,2,6,-1,-1,1916,0.6,1,-1
29,2,6,-1,-1,815,0.85,1,-1
30,2,6,-1,-1,785,1,1,-1
1,3,6,-1,-1,344,0.6,1,1
2,3,6,-1,-1,511,0.75,1,1
3,3,6,-1,-1,366,0.85,1,1
4,3,6,-1,-1,402,1,1,1
5,3,6,-1,-1,442,1,1,1
6,3,6,-1,-1,351,0.8,1,1
7,3,6,-1,-1,504,1,1,1
8,3,6,-1,-1,358,1,0,1
9,3,6,-1,-1,442,0.75,1,1
10,3,6,-1,-1,333,0.85,1,1
11,3,6,-1,-1,427,0.95,1,1
12,3,6,-1,-1,414,0.5,1,1
13,3,6,-1,-1,983,1,1,-1
14,3,6,-1,-1,1000,0.65,1,-1
15,3,6,-1,-1,1160,1,1,-1
16,3,6,-1,-1,837,0.8,1,-1
17,3,6,-1,-1,743,0.9,1,-1
18,3,6,-1,-1,883,0.7,0,-1
19,3,6,-1,-1,925,0.95,1,-1
20,3,6,-1,-1,634,0.95,1,-1
21,3,6,-1,-1,1225,0.75,1,-1
22,3,6,-1,-1,731,1,1,-1
23,3,6,-1,-1,661,0.65,1,-1
24,3,6,-1,-1,815,0.85,0,-1
25,3,6,-1,-1,787,0.8,1,-1
26,3,6,-1,-1,1157,1,1,-1
27,3,6,-1,-1,1507,0.8,1,-1
28,3,6,-1,-1,763,0.9,1,-1
29,3,6,-1,-1,1134,1,1,-1
30,3,6,-1,-1,770,1,1,-1
1,1,6,1,1,541,0.6,0,1
2,1,6,1,1,631,0.75,0,1
3,1,6,1,1,616,0.7,0,1
4,1,6,1,1,630,0.65,1,1
5,1,6,1,1,710,0.6,0,1
6,1,6,1,1,858,0.9,1,1
7,1,6,1,1,453,1,1,1
8,1,6,1,1,522,0.9,0,1
9,1,6,1,1,543,0.7,1,1
10,1,6,1,1,512,0.85,1,1
11,1,6,1,1,881,0.5,0,1
12,1,6,1,1,567,0.5,1,1
13,1,6,1,1,1228,0.85,1,-1
14,1,6,1,1,1579,0.9,0,-1
15,1,6,1,1,1535,0.7,1,-1
16,1,6,1,1,922,0.55,1,-1
17,1,6,1,1,1662,0.8,0,-1
18,1,6,1,1,1337,0.85,1,-1
19,1,6,1,1,1756,0.75,0,-1
20,1,6,1,1,1302,0.75,0,-1
21,1,6,1,1,1075,0.75,1,-1
22,1,6,1,1,1808,0.7,0,-1
23,1,6,1,1,1606,0.5,1,-1
24,1,6,1,1,371,0.75,0,-1
25,1,6,1,1,1749,0.6,0,-1
26,1,6,1,1,1515,0.5,0,-1
27,1,6,1,1,1662,0.9,0,-1
28,1,6,1,1,2208,0.6,0,-1
29,1,6,1,1,1658,0.5,1,-1
30,1,6,1,1,1248,0.85,1,-1
1,2,6,1,1,449,0.55,1,1
2,2,6,1,1,604,0.75,1,1
3,2,6,1,1,423,0.9,1,1
4,2,6,1,1,458,1,1,1
5,2,6,1,1,441,0.9,1,1
6,2,6,1,1,384,0.75,1,1
7,2,6,1,1,496,1,1,1
8,2,6,1,1,730,0.5,0,1
9,2,6,1,1,487,0.85,1,1
10,2,6,1,1,407,0.95,1,1
11,2,6,1,1,NaN,0.8,NaN,1
12,2,6,1,1,410,0.5,0,1
13,2,6,1,1,1415,0.8,1,-1
14,2,6,1,1,1459,0.7,1,-1
15,2,6,1,1,1639,0.8,1,-1
16,2,6,1,1,867,0.6,0,-1
17,2,6,1,1,1551,0.65,1,-1
18,2,6,1,1,1265,0.7,1,-1
19,2,6,1,1,665,0.95,0,-1
20,2,6,1,1,988,0.9,0,-1
21,2,6,1,1,1080,0.8,0,-1
22,2,6,1,1,2234,0.5,0,-1
23,2,6,1,1,1155,0.8,1,-1
24,2,6,1,1,786,0.9,0,-1
25,2,6,1,1,1283,0.6,0,-1
26,2,6,1,1,1249,0.5,0,-1
27,2,6,1,1,1445,0.65,1,-1
28,2,6,1,1,1490,0.5,0,-1
29,2,6,1,1,1827,0.5,1,-1
30,2,6,1,1,1137,0.95,0,-1
1,3,6,1,1,338,0.65,1,1
2,3,6,1,1,590,0.6,0,1
3,3,6,1,1,476,0.85,1,1
4,3,6,1,1,578,0.65,1,1
5,3,6,1,1,491,1,1,1
6,3,6,1,1,328,0.7,1,1
7,3,6,1,1,421,1,1,1
8,3,6,1,1,369,0.75,0,1
9,3,6,1,1,521,0.65,1,1
10,3,6,1,1,395,0.7,1,1
11,3,6,1,1,501,0.95,0,1
12,3,6,1,1,360,0.55,1,1
13,3,6,1,1,1111,1,1,-1
14,3,6,1,1,1239,0.75,1,-1
15,3,6,1,1,1488,0.65,1,-1
16,3,6,1,1,747,0.7,1,-1
17,3,6,1,1,1397,0.7,1,-1
18,3,6,1,1,743,0.7,1,-1
19,3,6,1,1,698,1,1,-1
20,3,6,1,1,1033,0.8,0,-1
21,3,6,1,1,984,0.75,0,-1
22,3,6,1,1,704,0.8,1,-1
23,3,6,1,1,773,0.6,1,-1
24,3,6,1,1,698,0.85,1,-1
25,3,6,1,1,1107,0.6,1,-1
26,3,6,1,1,1239,0.5,1,-1
27,3,6,1,1,1551,0.8,0,-1
28,3,6,1,1,1201,0.8,1,-1
29,3,6,1,1,1264,0.5,1,-1
30,3,6,1,1,776,0.9,1,-1
1,1,6,1,-1,481,0.55,1,1
2,1,6,1,-1,617,0.8,1,1
3,1,6,1,-1,463,0.75,1,1
4,1,6,1,-1,577,0.85,1,1
5,1,6,1,-1,466,0.6,1,1
6,1,6,1,-1,NaN,0.95,NaN,1
7,1,6,1,-1,766,0.75,1,1
8,1,6,1,-1,353,0.9,0,1
9,1,6,1,-1,439,0.7,1,1
10,1,6,1,-1,350,0.85,0,1
11,1,6,1,-1,736,0.55,0,1
12,1,6,1,-1,613,0.55,0,1
13,1,6,1,-1,2047,0.65,0,-1
14,1,6,1,-1,NaN,0.8,NaN,-1
15,1,6,1,-1,1466,0.8,1,-1
16,1,6,1,-1,1199,0.55,0,-1
17,1,6,1,-1,643,0.8,0,-1
18,1,6,1,-1,1209,0.75,1,-1
19,1,6,1,-1,1750,0.75,0,-1
20,1,6,1,-1,1384,0.7,1,-1
21,1,6,1,-1,1203,0.65,0,-1
22,1,6,1,-1,1525,1,1,-1
23,1,6,1,-1,601,0.8,0,-1
24,1,6,1,-1,749,0.65,0,-1
25,1,6,1,-1,930,0.7,0,-1
26,1,6,1,-1,1490,0.5,0,-1
27,1,6,1,-1,1960,0.9,1,-1
28,1,6,1,-1,1218,0.7,1,-1
29,1,6,1,-1,2158,0.5,1,-1
30,1,6,1,-1,1001,0.9,0,-1
1,2,6,1,-1,455,0.55,0,1
2,2,6,1,-1,599,0.7,1,1
3,2,6,1,-1,349,0.95,1,1
4,2,6,1,-1,426,0.5,0,1
5,2,6,1,-1,519,0.55,0,1
6,2,6,1,-1,451,0.75,1,1
7,2,6,1,-1,413,1,1,1
8,2,6,1,-1,431,0.5,0,1
9,2,6,1,-1,604,0.95,1,1
10,2,6,1,-1,340,0.85,1,1
11,2,6,1,-1,577,0.7,1,1
12,2,6,1,-1,558,0.55,1,1
13,2,6,1,-1,1607,0.85,0,-1
14,2,6,1,-1,1400,0.75,1,-1
15,2,6,1,-1,1291,0.95,1,-1
16,2,6,1,-1,1113,0.65,1,-1
17,2,6,1,-1,2195,0.6,1,-1
18,2,6,1,-1,953,0.75,1,-1
19,2,6,1,-1,1054,0.85,1,-1
20,2,6,1,-1,698,0.8,1,-1
21,2,6,1,-1,1166,0.65,1,-1
22,2,6,1,-1,1107,1,1,-1
23,2,6,1,-1,1614,0.7,1,-1
24,2,6,1,-1,915,0.9,1,-1
25,2,6,1,-1,1007,0.7,1,-1
26,2,6,1,-1,1172,1,1,-1
27,2,6,1,-1,1252,0.85,0,-1
28,2,6,1,-1,1143,0.95,1,-1
29,2,6,1,-1,1714,0.5,1,-1
30,2,6,1,-1,863,1,1,-1
1,3,6,1,-1,385,0.7,1,1
2,3,6,1,-1,582,0.7,1,1
3,3,6,1,-1,499,0.7,0,1
4,3,6,1,-1,473,1,1,1
5,3,6,1,-1,531,1,1,1
6,3,6,1,-1,428,0.85,1,1
7,3,6,1,-1,528,1,1,1
8,3,6,1,-1,382,0.9,1,1
9,3,6,1,-1,477,0.7,1,1
10,3,6,1,-1,366,0.85,1,1
11,3,6,1,-1,703,0.6,1,1
12,3,6,1,-1,401,0.55,1,1
13,3,6,1,-1,1693,1,0,-1
14,3,6,1,-1,959,0.8,1,-1
15,3,6,1,-1,937,0.8,1,-1
16,3,6,1,-1,796,0.55,1,-1
17,3,6,1,-1,977,0.9,1,-1
18,3,6,1,-1,891,0.7,1,-1
19,3,6,1,-1,825,1,1,-1
20,3,6,1,-1,862,0.6,1,-1
21,3,6,1,-1,1387,0.75,1,-1
22,3,6,1,-1,792,1,1,-1
23,3,6,1,-1,1593,0.65,1,-1
24,3,6,1,-1,595,0.85,1,-1
25,3,6,1,-1,859,0.75,1,-1
26,3,6,1,-1,738,1,1,-1
27,3,6,1,-1,776,0.85,1,-1
28,3,6,1,-1,1087,0.9,1,-1
29,3,6,1,-1,1781,0.5,0,-1
30,3,6,1,-1,1184,0.95,1,-1
1,1,7,-1,1,540,0.6,1,1
2,1,7,-1,1,642,0.8,1,1
3,1,7,-1,1,636,0.75,1,1
4,1,7,-1,1,547,1,0,1
5,1,7,-1,1,456,0.7,0,1
6,1,7,-1,1,514,1,1,1
7,1,7,-1,1,359,0.75,1,1
8,1,7,-1,1,431,0.75,0,1
9,1,7,-1,1,545,0.7,0,1
10,1,7,-1,1,559,0.8,1,1
11,1,7,-1,1,823,0.7,1,1
12,1,7,-1,1,491,0.6,1,1
13,1,7,-1,1,1399,0.9,0,-1
14,1,7,-1,1,2194,0.9,0,-1
15,1,7,-1,1,2701,0.7,1,-1
16,1,7,-1,1,719,0.8,0,-1
17,1,7,-1,1,1265,0.75,0,-1
18,1,7,-1,1,644,0.85,0,-1
19,1,7,-1,1,1585,0.8,0,-1
20,1,7,-1,1,1085,0.75,1,-1
21,1,7,-1,1,774,0.9,1,-1
22,1,7,-1,1,901,0.9,1,-1
23,1,7,-1,1,826,0.8,1,-1
24,1,7,-1,1,1275,0.65,0,-1
25,1,7,-1,1,831,0.75,0,-1
26,1,7,-1,1,1911,0.5,0,-1
27,1,7,-1,1,1481,0.9,1,-1
28,1,7,-1,1,2931,0.6,1,-1
29,1,7,-1,1,752,0.65,1,-1
30,1,7,-1,1,1125,1,0,-1
1,2,7,-1,1,399,0.55,1,1
2,2,7,-1,1,618,0.75,0,1
3,2,7,-1,1,506,0.75,0,1
4,2,7,-1,1,776,1,1,1
5,2,7,-1,1,515,0.8,1,1
6,2,7,-1,1,541,0.8,1,1
7,2,7,-1,1,403,1,1,1
8,2,7,-1,1,384,1,1,1
9,2,7,-1,1,537,0.7,1,1
10,2,7,-1,1,364,0.95,1,1
11,2,7,-1,1,460,0.75,1,1
12,2,7,-1,1,462,0.55,1,1
13,2,7,-1,1,1093,0.65,1,-1
14,2,7,-1,1,1033,0.9,1,-1
15,2,7,-1,1,1083,1,1,-1
16,2,7,-1,1,1142,0.9,1,-1
17,2,7,-1,1,840,0.75,1,-1
18,2,7,-1,1,636,0.9,1,-1
19,2,7,-1,1,1390,0.9,1,-1
20,2,7,-1,1,694,0.95,1,-1
21,2,7,-1,1,981,1,1,-1
22,2,7,-1,1,2772,0.7,1,-1
23,2,7,-1,1,1670,0.75,0,-1
24,2,7,-1,1,768,0.9,1,-1
25,2,7,-1,1,714,0.8,1,-1
26,2,7,-1,1,764,1,1,-1
27,2,7,-1,1,1584,0.75,1,-1
28,2,7,-1,1,2779,0.8,0,-1
29,2,7,-1,1,NaN,0.5,NaN,-1
30,2,7,-1,1,858,0.9,0,-1
1,3,7,-1,1,353,0.55,1,1
2,3,7,-1,1,529,0.75,1,1
3,3,7,-1,1,481,0.85,1,1
4,3,7,-1,1,400,0.95,1,1
5,3,7,-1,1,529,1,1,1
6,3,7,-1,1,365,1,0,1
7,3,7,-1,1,505,1,1,1
8,3,7,-1,1,417,0.95,1,1
9,3,7,-1,1,545,0.8,1,1
10,3,7,-1,1,622,0.9,0,1
11,3,7,-1,1,438,0.85,1,1
12,3,7,-1,1,342,0.5,0,1
13,3,7,-1,1,1165,1,1,-1
14,3,7,-1,1,1010,0.75,1,-1
15,3,7,-1,1,1135,1,0,-1
16,3,7,-1,1,1371,0.85,1,-1
17,3,7,-1,1,1181,0.6,1,-1
18,3,7,-1,1,1091,0.7,1,-1
19,3,7,-1,1,734,0.95,1,-1
20,3,7,-1,1,1785,0.7,1,-1
21,3,7,-1,1,1374,0.8,1,-1
22,3,7,-1,1,582,0.9,1,-1
23,3,7,-1,1,742,0.8,1,-1
24,3,7,-1,1,961,0.8,0,-1
25,3,7,-1,1,932,0.7,1,-1
26,3,7,-1,1,1245,0.5,1,-1
27,3,7,-1,1,845,0.8,0,-1
28,3,7,-1,1,784,0.95,1,-1
29,3,7,-1,1,1091,1,0,-1
30,3,7,-1,1,598,0.95,1,-1
1,1,7,-1,-1,619,0.6,0,1
2,1,7,-1,-1,538,0.85,1,1
3,1,7,-1,-1,725,0.75,1,1
4,1,7,-1,-1,395,0.9,1,1
5,1,7,-1,-1,525,0.6,0,1
6,1,7,-1,-1,539,0.8,0,1
7,1,7,-1,-1,485,0.9,1,1
8,1,7,-1,-1,471,0.65,0,1
9,1,7,-1,-1,549,0.8,1,1
10,1,7,-1,-1,397,0.9,1,1
11,1,7,-1,-1,506,0.9,0,1
12,1,7,-1,-1,348,0.65,1,1
13,1,7,-1,-1,1955,0.85,1,-1
14,1,7,-1,-1,1274,0.9,1,-1
15,1,7,-1,-1,1905,0.8,1,-1
16,1,7,-1,-1,893,1,0,-1
17,1,7,-1,-1,1430,0.8,0,-1
18,1,7,-1,-1,870,0.75,1,-1
19,1,7,-1,-1,1999,0.75,0,-1
20,1,7,-1,-1,1261,0.75,0,-1
21,1,7,-1,-1,1441,0.7,0,-1
22,1,7,-1,-1,2194,1,1,-1
23,1,7,-1,-1,1790,0.7,1,-1
24,1,7,-1,-1,541,0.7,1,-1
25,1,7,-1,-1,1095,0.8,1,-1
26,1,7,-1,-1,2545,0.5,1,-1
27,1,7,-1,-1,1076,1,1,-1
28,1,7,-1,-1,2748,0.6,1,-1
29,1,7,-1,-1,1142,0.5,1,-1
30,1,7,-1,-1,641,0.9,0,-1
1,2,7,-1,-1,359,0.55,0,1
2,2,7,-1,-1,598,0.9,1,1
3,2,7,-1,-1,543,0.9,1,1
4,2,7,-1,-1,557,1,1,1
5,2,7,-1,-1,827,0.7,1,1
6,2,7,-1,-1,467,0.8,1,1
7,2,7,-1,-1,526,1,1,1
8,2,7,-1,-1,488,1,1,1
9,2,7,-1,-1,500,0.95,1,1
10,2,7,-1,-1,428,0.95,1,1
11,2,7,-1,-1,782,0.8,1,1
12,2,7,-1,-1,493,0.55,1,1
13,2,7,-1,-1,898,1,1,-1
14,2,7,-1,-1,727,1,1,-1
15,2,7,-1,-1,1595,0.9,0,-1
16,2,7,-1,-1,650,0.85,1,-1
17,2,7,-1,-1,969,0.9,1,-1
18,2,7,-1,-1,866,0.65,0,-1
19,2,7,-1,-1,757,0.9,1,-1
20,2,7,-1,-1,873,0.95,1,-1
21,2,7,-1,-1,1102,1,1,-1
22,2,7,-1,-1,1292,1,1,-1
23,2,7,-1,-1,1162,0.7,1,-1
24,2,7,-1,-1,686,0.85,1,-1
25,2,7,-1,-1,694,0.85,1,-1
26,2,7,-1,-1,909,1,1,-1
27,2,7,-1,-1,988,0.9,1,-1
28,2,7,-1,-1,2808,0.6,1,-1
29,2,7,-1,-1,978,0.9,1,-1
30,2,7,-1,-1,568,1,1,-1
1,3,7,-1,-1,642,0.55,0,1
2,3,7,-1,-1,468,0.8,1,1
3,3,7,-1,-1,496,0.85,1,1
4,3,7,-1,-1,388,1,1,1
5,3,7,-1,-1,537,1,1,1
6,3,7,-1,-1,428,0.85,1,1
7,3,7,-1,-1,434,1,1,1
8,3,7,-1,-1,512,1,0,1
9,3,7,-1,-1,535,0.8,1,1
10,3,7,-1,-1,345,0.85,1,1
11,3,7,-1,-1,519,0.9,1,1
12,3,7,-1,-1,338,0.5,0,1
13,3,7,-1,-1,1460,1,1,-1
14,3,7,-1,-1,1101,0.8,1,-1
15,3,7,-1,-1,1051,1,1,-1
16,3,7,-1,-1,776,0.85,1,-1
17,3,7,-1,-1,915,0.9,1,-1
18,3,7,-1,-1,690,0.7,1,-1
19,3,7,-1,-1,764,0.95,1,-1
20,3,7,-1,-1,1138,0.95,1,-1
21,3,7,-1,-1,1097,0.85,1,-1
22,3,7,-1,-1,758,1,1,-1
23,3,7,-1,-1,1167,0.65,1,-1
24,3,7,-1,-1,529,0.9,0,-1
25,3,7,-1,-1,940,0.7,1,-1
26,3,7,-1,-1,798,1,1,-1
27,3,7,-1,-1,1240,0.8,1,-1
28,3,7,-1,-1,834,0.9,1,-1
29,3,7,-1,-1,802,1,1,-1
30,3,7,-1,-1,624,0.95,1,-1
1,1,7,1,1,NaN,0.6,NaN,1
2,1,7,1,1,561,0.75,0,1
3,1,7,1,1,762,0.85,0,1
4,1,7,1,1,442,0.65,1,1
5,1,7,1,1,832,0.6,0,1
6,1,7,1,1,533,0.9,1,1
7,1,7,1,1,899,0.6,1,1
8,1,7,1,1,476,0.8,1,1
9,1,7,1,1,571,0.6,1,1
10,1,7,1,1,475,0.85,1,1
11,1,7,1,1,600,0.9,0,1
12,1,7,1,1,623,0.55,0,1
13,1,7,1,1,1219,0.85,0,-1
14,1,7,1,1,1388,0.55,1,-1
15,1,7,1,1,2633,0.8,1,-1
16,1,7,1,1,1103,0.5,1,-1
17,1,7,1,1,1335,0.65,0,-1
18,1,7,1,1,1600,0.65,0,-1
19,1,7,1,1,1056,0.75,0,-1
20,1,7,1,1,1403,0.75,0,-1
21,1,7,1,1,1289,0.6,1,-1
22,1,7,1,1,1679,0.55,1,-1
23,1,7,1,1,1425,0.7,1,-1
24,1,7,1,1,355,0.75,0,-1
25,1,7,1,1,1612,0.6,0,-1
26,1,7,1,1,1755,0.5,0,-1
27,1,7,1,1,1570,1,0,-1
28,1,7,1,1,2649,0.5,1,-1
29,1,7,1,1,1696,0.5,1,-1
30,1,7,1,1,836,0.9,0,-1
1,2,7,1,1,510,0.55,1,1
2,2,7,1,1,577,0.8,1,1
3,2,7,1,1,461,0.9,1,1
4,2,7,1,1,583,1,1,1
5,2,7,1,1,NaN,0.5,NaN,1
6,2,7,1,1,393,0.7,0,1
7,2,7,1,1,462,1,1,1
8,2,7,1,1,313,0.5,1,1
9,2,7,1,1,607,0.65,1,1
10,2,7,1,1,354,1,1,1
11,2,7,1,1,463,0.65,0,1
12,2,7,1,1,432,0.55,0,1
13,2,7,1,1,2372,0.65,0,-1
14,2,7,1,1,1014,0.5,1,-1
15,2,7,1,1,1097,0.95,1,-1
16,2,7,1,1,904,0.55,0,-1
17,2,7,1,1,1803,0.65,1,-1
18,2,7,1,1,1602,0.65,1,-1
19,2,7,1,1,809,0.9,0,-1
20,2,7,1,1,688,0.75,0,-1
21,2,7,1,1,975,0.7,0,-1
22,2,7,1,1,898,0.5,1,-1
23,2,7,1,1,888,0.75,1,-1
24,2,7,1,1,1179,0.9,0,-1
25,2,7,1,1,921,0.6,1,-1
26,2,7,1,1,1372,0.5,0,-1
27,2,7,1,1,1135,0.7,1,-1
28,2,7,1,1,1786,0.9,1,-1
29,2,7,1,1,2387,0.5,1,-1
30,2,7,1,1,1349,0.95,1,-1
1,3,7,1,1,350,0.65,1,1
2,3,7,1,1,570,0.7,0,1
3,3,7,1,1,418,0.85,1,1
4,3,7,1,1,477,0.7,0,1
5,3,7,1,1,431,1,1,1
6,3,7,1,1,420,0.75,1,1
7,3,7,1,1,441,1,1,1
8,3,7,1,1,378,0.65,1,1
9,3,7,1,1,527,0.75,1,1
10,3,7,1,1,421,0.9,1,1
11,3,7,1,1,509,0.95,0,1
12,3,7,1,1,455,0.55,1,1
13,3,7,1,1,904,1,1,-1
14,3,7,1,1,1117,0.7,1,-1
15,3,7,1,1,1212,0.85,1,-1
16,3,7,1,1,785,0.7,1,-1
17,3,7,1,1,1125,0.8,1,-1
18,3,7,1,1,782,0.7,1,-1
19,3,7,1,1,635,1,1,-1
20,3,7,1,1,1247,0.85,1,-1
21,3,7,1,1,877,0.75,1,-1
22,3,7,1,1,1343,0.8,1,-1
23,3,7,1,1,758,0.7,1,-1
24,3,7,1,1,772,0.85,0,-1
25,3,7,1,1,721,0.5,0,-1
26,3,7,1,1,1343,0.5,1,-1
27,3,7,1,1,2258,0.75,0,-1
28,3,7,1,1,1238,0.9,1,-1
29,3,7,1,1,1814,0.5,1,-1
30,3,7,1,1,1304,0.9,0,-1
1,1,7,1,-1,568,0.55,1,1
2,1,7,1,-1,563,0.9,1,1
3,1,7,1,-1,456,0.75,0,1
4,1,7,1,-1,416,0.9,1,1
5,1,7,1,-1,513,0.7,1,1
6,1,7,1,-1,717,0.65,1,1
7,1,7,1,-1,479,0.9,1,1
8,1,7,1,-1,342,0.7,0,1
9,1,7,1,-1,507,0.65,1,1
10,1,7,1,-1,428,0.85,1,1
11,1,7,1,-1,712,0.6,0,1
12,1,7,1,-1,548,0.6,0,1
13,1,7,1,-1,2668,0.9,0,-1
14,1,7,1,-1,1995,0.6,1,-1
15,1,7,1,-1,2277,0.75,1,-1
16,1,7,1,-1,824,0.5,1,-1
17,1,7,1,-1,887,0.75,0,-1
18,1,7,1,-1,1548,0.8,1,-1
19,1,7,1,-1,2224,0.8,0,-1
20,1,7,1,-1,1040,0.7,1,-1
21,1,7,1,-1,1873,0.7,0,-1
22,1,7,1,-1,1568,1,1,-1
23,1,7,1,-1,984,0.75,1,-1
24,1,7,1,-1,808,0.6,1,-1
25,1,7,1,-1,1236,0.8,0,-1
26,1,7,1,-1,2136,0.5,0,-1
27,1,7,1,-1,1284,0.65,0,-1
28,1,7,1,-1,1045,0.85,1,-1
29,1,7,1,-1,1609,0.5,1,-1
30,1,7,1,-1,967,0.85,0,-1
1,2,7,1,-1,NaN,0.5,NaN,1
2,2,7,1,-1,680,0.8,1,1
3,2,7,1,-1,477,0.9,1,1
4,2,7,1,-1,560,0.5,0,1
5,2,7,1,-1,684,0.6,1,1
6,2,7,1,-1,449,0.7,1,1
7,2,7,1,-1,563,1,1,1
8,2,7,1,-1,510,0.5,0,1
9,2,7,1,-1,494,0.95,1,1
10,2,7,1,-1,336,0.95,1,1
11,2,7,1,-1,458,0.85,1,1
12,2,7,1,-1,330,0.55,1,1
13,2,7,1,-1,1259,0.65,0,-1
14,2,7,1,-1,1127,0.8,1,-1
15,2,7,1,-1,947,1,1,-1
16,2,7,1,-1,852,0.55,1,-1
17,2,7,1,-1,2875,0.6,0,-1
18,2,7,1,-1,694,0.85,1,-1
19,2,7,1,-1,912,0.85,1,-1
20,2,7,1,-1,534,0.9,1,-1
21,2,7,1,-1,1064,0.75,1,-1
22,2,7,1,-1,1099,1,1,-1
23,2,7,1,-1,1412,0.75,1,-1
24,2,7,1,-1,758,0.85,1,-1
25,2,7,1,-1,1131,0.8,1,-1
26,2,7,1,-1,773,1,1,-1
27,2,7,1,-1,1035,0.65,1,-1
28,2,7,1,-1,800,0.95,1,-1
29,2,7,1,-1,915,0.5,0,-1
30,2,7,1,-1,1201,0.95,0,-1
1,3,7,1,-1,386,0.7,1,1
2,3,7,1,-1,527,0.8,1,1
3,3,7,1,-1,425,0.75,1,1
4,3,7,1,-1,366,1,1,1
5,3,7,1,-1,457,1,1,1
6,3,7,1,-1,379,0.85,1,1
7,3,7,1,-1,493,1,1,1
8,3,7,1,-1,418,0.8,1,1
9,3,7,1,-1,607,0.65,1,1
10,3,7,1,-1,363,0.95,1,1
11,3,7,1,-1,592,0.9,1,1
12,3,7,1,-1,389,0.6,1,1
13,3,7,1,-1,1366,1,1,-1
14,3,7,1,-1,1992,0.6,0,-1
15,3,7,1,-1,1093,0.95,1,-1
16,3,7,1,-1,989,0.55,1,-1
17,3,7,1,-1,717,0.85,1,-1
18,3,7,1,-1,708,0.8,1,-1
19,3,7,1,-1,777,1,1,-1
20,3,7,1,-1,1322,0.85,1,-1
21,3,7,1,-1,1061,0.75,1,-1
22,3,7,1,-1,604,1,1,-1
23,3,7,1,-1,941,0.7,1,-1
24,3,7,1,-1,698,0.9,1,-1
25,3,7,1,-1,766,0.65,1,-1
26,3,7,1,-1,681,1,1,-1
27,3,7,1,-1,1251,0.8,1,-1
28,3,7,1,-1,1130,0.8,1,-1
29,3,7,1,-1,NaN,0.5,NaN,-1
30,3,7,1,-1,590,0.95,1,-1
1,1,8,-1,1,608,0.6,1,1
2,1,8,-1,1,486,0.7,0,1
3,1,8,-1,1,558,0.8,0,1
4,1,8,-1,1,482,0.95,0,1
5,1,8,-1,1,474,0.8,0,1
6,1,8,-1,1,586,1,1,1
7,1,8,-1,1,NaN,0.5,NaN,1
8,1,8,-1,1,527,0.75,0,1
9,1,8,-1,1,576,0.9,0,1
10,1,8,-1,1,410,1,1,1
11,1,8,-1,1,585,0.95,1,1
12,1,8,-1,1,475,0.6,1,1
13,1,8,-1,1,1179,0.6,0,-1
14,1,8,-1,1,1153,1,0,-1
15,1,8,-1,1,1500,0.7,1,-1
16,1,8,-1,1,644,1,0,-1
17,1,8,-1,1,878,0.8,0,-1
18,1,8,-1,1,685,0.85,0,-1
19,1,8,-1,1,1370,0.85,1,-1
20,1,8,-1,1,800,0.8,1,-1
21,1,8,-1,1,926,1,1,-1
22,1,8,-1,1,774,1,1,-1
23,1,8,-1,1,1259,0.75,1,-1
24,1,8,-1,1,999,0.65,0,-1
25,1,8,-1,1,1071,0.85,0,-1
26,1,8,-1,1,1439,0.5,0,-1
27,1,8,-1,1,1805,0.95,1,-1
28,1,8,-1,1,2944,0.6,1,-1
29,1,8,-1,1,760,0.5,1,-1
30,1,8,-1,1,1240,0.8,0,-1
1,2,8,-1,1,408,0.55,1,1
2,2,8,-1,1,566,0.8,0,1
3,2,8,-1,1,NaN,0.8,NaN,1
4,2,8,-1,1,388,0.9,1,1
5,2,8,-1,1,646,0.9,1,1
6,2,8,-1,1,383,0.8,1,1
7,2,8,-1,1,455,1,1,1
8,2,8,-1,1,NaN,1,NaN,1
9,2,8,-1,1,955,0.7,1,1
10,2,8,-1,1,332,0.95,1,1
11,2,8,-1,1,511,0.65,1,1
12,2,8,-1,1,511,0.55,1,1
13,2,8,-1,1,1611,0.85,0,-1
14,2,8,-1,1,1870,0.85,1,-1
15,2,8,-1,1,998,1,1,-1
16,2,8,-1,1,611,0.9,1,-1
17,2,8,-1,1,986,0.75,1,-1
18,2,8,-1,1,573,0.95,1,-1
19,2,8,-1,1,667,0.95,1,-1
20,2,8,-1,1,585,0.95,1,-1
21,2,8,-1,1,955,1,1,-1
22,2,8,-1,1,1416,0.8,1,-1
23,2,8,-1,1,2180,0.75,0,-1
24,2,8,-1,1,698,0.95,1,-1
25,2,8,-1,1,769,0.75,1,-1
26,2,8,-1,1,1090,0.5,1,-1
27,2,8,-1,1,2840,0.85,1,-1
28,2,8,-1,1,2900,0.9,0,-1
29,2,8,-1,1,1792,0.5,0,-1
30,2,8,-1,1,669,0.95,0,-1
1,3,8,-1,1,466,0.55,1,1
2,3,8,-1,1,542,0.7,1,1
3,3,8,-1,1,421,0.9,1,1
4,3,8,-1,1,666,0.95,1,1
5,3,8,-1,1,466,1,1,1
6,3,8,-1,1,394,0.85,0,1
7,3,8,-1,1,713,1,1,1
8,3,8,-1,1,514,0.8,1,1
9,3,8,-1,1,546,0.85,1,1
10,3,8,-1,1,344,0.9,0,1
11,3,8,-1,1,656,0.85,1,1
12,3,8,-1,1,460,0.6,0,1
13,3,8,-1,1,852,1,1,-1
14,3,8,-1,1,1539,0.8,1,-1
15,3,8,-1,1,1013,1,0,-1
16,3,8,-1,1,657,0.95,1,-1
17,3,8,-1,1,791,0.9,1,-1
18,3,8,-1,1,784,0.75,1,-1
19,3,8,-1,1,652,0.95,1,-1
20,3,8,-1,1,1394,0.95,1,-1
21,3,8,-1,1,920,0.8,1,-1
22,3,8,-1,1,1296,0.95,1,-1
23,3,8,-1,1,774,0.6,1,-1
24,3,8,-1,1,1045,0.9,0,-1
25,3,8,-1,1,892,0.75,1,-1
26,3,8,-1,1,1061,0.5,1,-1
27,3,8,-1,1,1606,0.65,1,-1
28,3,8,-1,1,648,0.5,0,-1
29,3,8,-1,1,2168,1,0,-1
30,3,8,-1,1,574,1,1,-1
1,1,8,-1,-1,399,0.6,1,1
2,1,8,-1,-1,521,0.8,1,1
3,1,8,-1,-1,788,0.8,0,1
4,1,8,-1,-1,340,1,1,1
5,1,8,-1,-1,779,0.7,0,1
6,1,8,-1,-1,991,0.95,1,1
7,1,8,-1,-1,595,1,1,1
8,1,8,-1,-1,413,0.8,1,1
9,1,8,-1,-1,696,0.7,1,1
10,1,8,-1,-1,369,0.9,1,1
11,1,8,-1,-1,519,0.65,0,1
12,1,8,-1,-1,605,0.65,1,1
13,1,8,-1,-1,1761,0.8,1,-1
14,1,8,-1,-1,913,0.9,1,-1
15,1,8,-1,-1,1263,0.85,0,-1
16,1,8,-1,-1,694,1,0,-1
17,1,8,-1,-1,917,0.9,0,-1
18,1,8,-1,-1,702,0.9,1,-1
19,1,8,-1,-1,1536,0.85,1,-1
20,1,8,-1,-1,722,0.75,0,-1
21,1,8,-1,-1,1081,0.7,0,-1
22,1,8,-1,-1,1885,1,1,-1
23,1,8,-1,-1,1129,0.7,0,-1
24,1,8,-1,-1,734,0.65,0,-1
25,1,8,-1,-1,962,0.95,1,-1
26,1,8,-1,-1,2114,0.5,0,-1
27,1,8,-1,-1,1468,1,1,-1
28,1,8,-1,-1,1663,0.8,1,-1
29,1,8,-1,-1,1201,0.5,1,-1
30,1,8,-1,-1,616,1,0,-1
1,2,8,-1,-1,409,0.5,1,1
2,2,8,-1,-1,530,0.95,1,1
3,2,8,-1,-1,529,0.9,1,1
4,2,8,-1,-1,402,1,1,1
5,2,8,-1,-1,512,0.85,1,1
6,2,8,-1,-1,657,0.5,0,1
7,2,8,-1,-1,406,1,1,1
8,2,8,-1,-1,532,1,1,1
9,2,8,-1,-1,445,0.9,1,1
10,2,8,-1,-1,359,1,1,1
11,2,8,-1,-1,506,0.8,0,1
12,2,8,-1,-1,407,0.55,1,1
13,2,8,-1,-1,943,1,1,-1
14,2,8,-1,-1,1264,0.85,1,-1
15,2,8,-1,-1,1219,0.9,1,-1
16,2,8,-1,-1,825,0.85,1,-1
17,2,8,-1,-1,917,0.95,1,-1
18,2,8,-1,-1,749,0.7,0,-1
19,2,8,-1,-1,913,0.85,1,-1
20,2,8,-1,-1,903,0.9,1,-1
21,2,8,-1,-1,940,1,1,-1
22,2,8,-1,-1,984,1,1,-1
23,2,8,-1,-1,1089,0.8,1,-1
24,2,8,-1,-1,689,0.9,1,-1
25,2,8,-1,-1,962,0.8,1,-1
26,2,8,-1,-1,873,1,1,-1
27,2,8,-1,-1,993,0.85,1,-1
28,2,8,-1,-1,2983,0.75,0,-1
29,2,8,-1,-1,694,0.95,1,-1
30,2,8,-1,-1,851,1,1,-1
1,3,8,-1,-1,285,0.6,1,1
2,3,8,-1,-1,574,0.9,1,1
3,3,8,-1,-1,467,0.9,1,1
4,3,8,-1,-1,448,0.9,1,1
5,3,8,-1,-1,498,0.7,1,1
6,3,8,-1,-1,324,1,1,1
7,3,8,-1,-1,566,1,1,1
8,3,8,-1,-1,400,0.95,0,1
9,3,8,-1,-1,465,0.85,1,1
10,3,8,-1,-1,387,0.9,1,1
11,3,8,-1,-1,843,0.85,1,1
12,3,8,-1,-1,352,0.6,1,1
13,3,8,-1,-1,901,1,1,-1
14,3,8,-1,-1,852,0.8,1,-1
15,3,8,-1,-1,840,1,1,-1
16,3,8,-1,-1,787,0.8,1,-1
17,3,8,-1,-1,703,0.95,1,-1
18,3,8,-1,-1,798,0.7,1,-1
19,3,8,-1,-1,736,0.95,1,-1
20,3,8,-1,-1,1035,0.95,1,-1
21,3,8,-1,-1,811,0.85,1,-1
22,3,8,-1,-1,895,1,1,-1
23,3,8,-1,-1,1881,0.8,1,-1
24,3,8,-1,-1,757,1,0,-1
25,3,8,-1,-1,818,0.8,1,-1
26,3,8,-1,-1,718,1,1,-1
27,3,8,-1,-1,1890,0.85,1,-1
28,3,8,-1,-1,924,0.9,1,-1
29,3,8,-1,-1,1024,1,1,-1
30,3,8,-1,-1,649,1,1,-1
1,1,8,1,1,NaN,0.6,NaN,1
2,1,8,1,1,536,0.75,0,1
3,1,8,1,1,734,0.8,0,1
4,1,8,1,1,605,0.55,1,1
5,1,8,1,1,549,0.7,0,1
6,1,8,1,1,785,0.65,0,1
7,1,8,1,1,677,0.85,1,1
8,1,8,1,1,430,0.8,0,1
9,1,8,1,1,843,0.8,1,1
10,1,8,1,1,448,0.95,1,1
11,1,8,1,1,722,0.55,1,1
12,1,8,1,1,NaN,0.5,NaN,1
13,1,8,1,1,1274,0.9,0,-1
14,1,8,1,1,1110,0.9,1,-1
15,1,8,1,1,1219,0.8,1,-1
16,1,8,1,1,1024,0.5,1,-1
17,1,8,1,1,1366,0.75,0,-1
18,1,8,1,1,619,0.65,0,-1
19,1,8,1,1,1381,0.85,0,-1
20,1,8,1,1,1401,0.75,0,-1
21,1,8,1,1,1276,0.75,1,-1
22,1,8,1,1,1644,0.55,1,-1
23,1,8,1,1,1240,0.85,1,-1
24,1,8,1,1,1578,0.8,1,-1
25,1,8,1,1,1871,0.6,1,-1
26,1,8,1,1,1805,0.95,0,-1
27,1,8,1,1,2156,0.65,1,-1
28,1,8,1,1,2952,0.55,0,-1
29,1,8,1,1,1328,0.5,0,-1
30,1,8,1,1,1156,0.9,0,-1
1,2,8,1,1,489,0.6,1,1
2,2,8,1,1,511,0.8,1,1
3,2,8,1,1,503,0.9,1,1
4,2,8,1,1,491,0.95,1,1
5,2,8,1,1,447,0.85,1,1
6,2,8,1,1,445,0.9,1,1
7,2,8,1,1,466,1,1,1
8,2,8,1,1,433,0.5,1,1
9,2,8,1,1,962,0.7,1,1
10,2,8,1,1,378,0.95,1,1
11,2,8,1,1,610,0.85,0,1
12,2,8,1,1,383,0.55,0,1
13,2,8,1,1,1556,0.6,1,-1
14,2,8,1,1,807,0.5,1,-1
15,2,8,1,1,1049,1,1,-1
16,2,8,1,1,1304,0.6,0,-1
17,2,8,1,1,1318,0.75,1,-1
18,2,8,1,1,2289,0.6,1,-1
19,2,8,1,1,998,0.9,0,-1
20,2,8,1,1,1130,0.7,1,-1
21,2,8,1,1,1455,0.75,0,-1
22,2,8,1,1,1551,0.5,0,-1
23,2,8,1,1,805,0.75,1,-1
24,2,8,1,1,769,0.9,0,-1
25,2,8,1,1,1194,0.7,0,-1
26,2,8,1,1,757,0.5,1,-1
27,2,8,1,1,1363,0.8,1,-1
28,2,8,1,1,2163,0.85,1,-1
29,2,8,1,1,1248,0.5,1,-1
30,2,8,1,1,1351,0.95,0,-1
1,3,8,1,1,466,0.65,1,1
2,3,8,1,1,572,0.7,0,1
3,3,8,1,1,443,0.85,1,1
4,3,8,1,1,394,0.75,1,1
5,3,8,1,1,539,1,1,1
6,3,8,1,1,821,0.7,0,1
7,3,8,1,1,531,1,1,1
8,3,8,1,1,333,0.8,1,1
9,3,8,1,1,612,0.8,1,1
10,3,8,1,1,325,0.95,1,1
11,3,8,1,1,596,0.9,0,1
12,3,8,1,1,321,0.6,1,1
13,3,8,1,1,839,1,1,-1
14,3,8,1,1,892,0.75,1,-1
15,3,8,1,1,1063,0.9,1,-1
16,3,8,1,1,892,0.65,1,-1
17,3,8,1,1,791,0.95,1,-1
18,3,8,1,1,695,0.7,1,-1
19,3,8,1,1,859,0.95,1,-1
20,3,8,1,1,1209,0.85,1,-1
21,3,8,1,1,1025,0.8,1,-1
22,3,8,1,1,493,0.8,1,-1
23,3,8,1,1,764,0.7,1,-1
24,3,8,1,1,519,0.5,0,-1
25,3,8,1,1,1605,0.55,0,-1
26,3,8,1,1,1880,0.5,1,-1
27,3,8,1,1,1010,0.85,1,-1
28,3,8,1,1,1268,0.8,1,-1
29,3,8,1,1,1749,0.5,1,-1
30,3,8,1,1,1082,0.9,1,-1
1,1,8,1,-1,452,0.5,0,1
2,1,8,1,-1,560,0.9,1,1
3,1,8,1,-1,537,0.8,1,1
4,1,8,1,-1,464,1,1,1
5,1,8,1,-1,490,0.6,1,1
6,1,8,1,-1,874,0.6,0,1
7,1,8,1,-1,440,0.95,1,1
8,1,8,1,-1,405,0.9,0,1
9,1,8,1,-1,537,0.7,1,1
10,1,8,1,-1,NaN,0.5,NaN,1
11,1,8,1,-1,892,0.55,1,1
12,1,8,1,-1,NaN,0.5,NaN,1
13,1,8,1,-1,1590,0.85,1,-1
14,1,8,1,-1,1003,1,1,-1
15,1,8,1,-1,1170,0.9,1,-1
16,1,8,1,-1,1412,0.75,0,-1
17,1,8,1,-1,1356,0.85,1,-1
18,1,8,1,-1,1215,0.85,1,-1
19,1,8,1,-1,1952,0.75,0,-1
20,1,8,1,-1,1683,0.75,1,-1
21,1,8,1,-1,967,0.6,0,-1
22,1,8,1,-1,1420,1,1,-1
23,1,8,1,-1,949,0.75,1,-1
24,1,8,1,-1,939,0.7,1,-1
25,1,8,1,-1,1373,0.65,0,-1
26,1,8,1,-1,1725,0.5,0,-1
27,1,8,1,-1,1643,0.6,1,-1
28,1,8,1,-1,2497,0.6,1,-1
29,1,8,1,-1,1913,0.5,1,-1
30,1,8,1,-1,1035,0.9,0,-1
1,2,8,1,-1,547,0.55,0,1
2,2,8,1,-1,504,0.8,1,1
3,2,8,1,-1,415,0.85,1,1
4,2,8,1,-1,426,0.8,1,1
5,2,8,1,-1,947,0.8,0,1
6,2,8,1,-1,410,0.75,1,1
7,2,8,1,-1,540,1,1,1
8,2,8,1,-1,436,0.65,0,1
9,2,8,1,-1,405,0.8,1,1
10,2,8,1,-1,388,0.95,1,1
11,2,8,1,-1,517,0.7,1,1
12,2,8,1,-1,440,0.55,1,1
13,2,8,1,-1,1158,0.8,0,-1
14,2,8,1,-1,1716,0.5,0,-1
15,2,8,1,-1,1086,1,1,-1
16,2,8,1,-1,932,0.65,1,-1
17,2,8,1,-1,1739,0.8,1,-1
18,2,8,1,-1,662,0.9,1,-1
19,2,8,1,-1,830,0.9,1,-1
20,2,8,1,-1,644,0.9,1,-1
21,2,8,1,-1,1148,0.75,1,-1
22,2,8,1,-1,892,1,1,-1
23,2,8,1,-1,1508,0.65,0,-1
24,2,8,1,-1,764,0.9,1,-1
25,2,8,1,-1,981,0.6,1,-1
26,2,8,1,-1,1037,1,1,-1
27,2,8,1,-1,1013,0.85,0,-1
28,2,8,1,-1,1077,0.6,1,-1
29,2,8,1,-1,979,0.5,1,-1
30,2,8,1,-1,1024,0.95,1,-1
1,3,8,1,-1,464,0.7,1,1
2,3,8,1,-1,557,0.8,1,1
3,3,8,1,-1,518,0.75,1,1
4,3,8,1,-1,404,1,1,1
5,3,8,1,-1,477,1,1,1
6,3,8,1,-1,478,0.5,0,1
7,3,8,1,-1,551,1,1,1
8,3,8,1,-1,416,0.9,1,1
9,3,8,1,-1,684,0.75,1,1
10,3,8,1,-1,333,0.85,1,1
11,3,8,1,-1,450,0.6,0,1
12,3,8,1,-1,604,0.5,1,1
13,3,8,1,-1,1281,1,0,-1
14,3,8,1,-1,1074,0.8,1,-1
15,3,8,1,-1,845,1,1,-1
16,3,8,1,-1,924,0.65,1,-1
17,3,8,1,-1,810,0.9,1,-1
18,3,8,1,-1,874,0.7,1,-1
19,3,8,1,-1,717,1,1,-1
20,3,8,1,-1,987,0.9,1,-1
21,3,8,1,-1,1156,0.75,0,-1
22,3,8,1,-1,812,1,1,-1
23,3,8,1,-1,660,0.7,1,-1
24,3,8,1,-1,1168,0.7,0,-1
25,3,8,1,-1,818,0.6,1,-1
26,3,8,1,-1,625,1,1,-1
27,3,8,1,-1,1372,0.8,1,-1
28,3,8,1,-1,823,0.85,1,-1
29,3,8,1,-1,1624,0.5,0,-1
30,3,8,1,-1,615,0.95,1,-1
1,1,9,-1,1,436,0.55,1,1
2,1,9,-1,1,532,0.8,1,1
3,1,9,-1,1,393,0.85,1,1
4,1,9,-1,1,599,1,0,1
5,1,9,-1,1,423,0.75,0,1
6,1,9,-1,1,531,1,1,1
7,1,9,-1,1,NaN,0.75,NaN,1
8,1,9,-1,1,412,0.6,1,1
9,1,9,-1,1,466,0.65,0,1
10,1,9,-1,1,422,1,1,1
11,1,9,-1,1,491,0.9,1,1
12,1,9,-1,1,391,0.65,1,1
13,1,9,-1,1,1048,0.85,1,-1
14,1,9,-1,1,1235,1,0,-1
15,1,9,-1,1,1263,0.9,1,-1
16,1,9,-1,1,746,1,0,-1
17,1,9,-1,1,1019,0.85,0,-1
18,1,9,-1,1,597,0.85,0,-1
19,1,9,-1,1,1492,0.8,1,-1
20,1,9,-1,1,631,0.85,1,-1
21,1,9,-1,1,661,1,1,-1
22,1,9,-1,1,873,1,1,-1
23,1,9,-1,1,1644,0.7,1,-1
24,1,9,-1,1,913,0.8,1,-1
25,1,9,-1,1,772,0.9,0,-1
26,1,9,-1,1,1102,0.75,1,-1
27,1,9,-1,1,911,0.9,1,-1
28,1,9,-1,1,1610,0.6,1,-1
29,1,9,-1,1,635,0.65,1,-1
30,1,9,-1,1,1049,0.9,1,-1
1,2,9,-1,1,392,0.6,1,1
2,2,9,-1,1,533,0.85,0,1
3,2,9,-1,1,439,0.85,1,1
4,2,9,-1,1,603,0.75,1,1
5,2,9,-1,1,624,0.8,1,1
6,2,9,-1,1,498,0.9,1,1
7,2,9,-1,1,375,1,1,1
8,2,9,-1,1,642,1,0,1
9,2,9,-1,1,608,0.85,1,1
10,2,9,-1,1,378,1,1,1
11,2,9,-1,1,485,0.7,1,1
12,2,9,-1,1,425,0.55,1,1
13,2,9,-1,1,788,0.95,0,-1
14,2,9,-1,1,1367,0.8,1,-1
15,2,9,-1,1,1142,1,1,-1
16,2,9,-1,1,852,0.95,1,-1
17,2,9,-1,1,861,0.65,1,-1
18,2,9,-1,1,733,0.9,1,-1
19,2,9,-1,1,1004,0.95,1,-1
20,2,9,-1,1,633,0.95,1,-1
21,2,9,-1,1,879,1,1,-1
22,2,9,-1,1,1301,0.8,1,-1
23,2,9,-1,1,1810,0.85,0,-1
24,2,9,-1,1,693,0.9,1,-1
25,2,9,-1,1,1327,0.85,1,-1
26,2,9,-1,1,760,1,1,-1
27,2,9,-1,1,NaN,0.85,NaN,-1
28,2,9,-1,1,2137,0.75,0,-1
29,2,9,-1,1,1918,0.5,0,-1
30,2,9,-1,1,711,0.95,0,-1
1,3,9,-1,1,438,0.7,1,1
2,3,9,-1,1,497,0.85,1,1
3,3,9,-1,1,443,0.95,1,1
4,3,9,-1,1,414,0.95,1,1
5,3,9,-1,1,461,1,1,1
6,3,9,-1,1,395,0.8,0,1
7,3,9,-1,1,496,1,1,1
8,3,9,-1,1,480,0.9,1,1
9,3,9,-1,1,544,0.75,1,1
10,3,9,-1,1,380,0.7,0,1
11,3,9,-1,1,494,0.9,1,1
12,3,9,-1,1,515,0.55,0,1
13,3,9,-1,1,892,1,1,-1
14,3,9,-1,1,917,0.9,1,-1
15,3,9,-1,1,962,1,0,-1
16,3,9,-1,1,738,0.85,1,-1
17,3,9,-1,1,790,0.85,1,-1
18,3,9,-1,1,592,0.7,1,-1
19,3,9,-1,1,664,0.95,1,-1
20,3,9,-1,1,1210,0.8,0,-1
21,3,9,-1,1,1192,0.9,1,-1
22,3,9,-1,1,504,0.9,1,-1
23,3,9,-1,1,626,0.8,1,-1
24,3,9,-1,1,1195,0.85,1,-1
25,3,9,-1,1,1051,0.8,1,-1
26,3,9,-1,1,1047,0.5,1,-1
27,3,9,-1,1,1132,0.8,0,-1
28,3,9,-1,1,1165,0.9,1,-1
29,3,9,-1,1,1430,1,0,-1
30,3,9,-1,1,636,1,1,-1
1,1,9,-1,-1,428,0.6,1,1
2,1,9,-1,-1,662,0.85,0,1
3,1,9,-1,-1,449,0.75,1,1
4,1,9,-1,-1,375,1,1,1
5,1,9,-1,-1,633,0.7,0,1
6,1,9,-1,-1,595,0.95,1,1
7,1,9,-1,-1,414,1,1,1
8,1,9,-1,-1,400,0.6,0,1
9,1,9,-1,-1,523,0.7,1,1
10,1,9,-1,-1,393,1,1,1
11,1,9,-1,-1,485,0.8,1,1
12,1,9,-1,-1,454,0.65,1,1
13,1,9,-1,-1,1462,0.9,1,-1
14,1,9,-1,-1,2113,1,1,-1
15,1,9,-1,-1,1258,1,0,-1
16,1,9,-1,-1,539,1,0,-1
17,1,9,-1,-1,1087,0.9,0,-1
18,1,9,-1,-1,659,0.9,1,-1
19,1,9,-1,-1,1077,0.85,1,-1
20,1,9,-1,-1,1833,0.55,0,-1
21,1,9,-1,-1,1076,0.8,0,-1
22,1,9,-1,-1,2051,1,1,-1
23,1,9,-1,-1,1607,0.5,1,-1
24,1,9,-1,-1,578,0.7,1,-1
25,1,9,-1,-1,1112,0.95,1,-1
26,1,9,-1,-1,1509,0.85,1,-1
27,1,9,-1,-1,1149,0.9,1,-1
28,1,9,-1,-1,1366,0.85,1,-1
29,1,9,-1,-1,1771,0.5,1,-1
30,1,9,-1,-1,801,0.8,0,-1
1,2,9,-1,-1,377,0.55,1,1
2,2,9,-1,-1,634,1,1,1
3,2,9,-1,-1,334,0.9,1,1
4,2,9,-1,-1,475,1,1,1
5,2,9,-1,-1,572,0.8,1,1
6,2,9,-1,-1,393,0.8,1,1
7,2,9,-1,-1,521,1,1,1
8,2,9,-1,-1,397,1,1,1
9,2,9,-1,-1,435,0.8,1,1
10,2,9,-1,-1,408,1,1,1
11,2,9,-1,-1,313,0.85,1,1
12,2,9,-1,-1,414,0.55,1,1
13,2,9,-1,-1,904,1,1,-1
14,2,9,-1,-1,1233,0.9,1,-1
15,2,9,-1,-1,831,0.9,1,-1
16,2,9,-1,-1,726,0.95,1,-1
17,2,9,-1,-1,1468,0.85,1,-1
18,2,9,-1,-1,1905,0.65,0,-1
19,2,9,-1,-1,1382,0.6,0,-1
20,2,9,-1,-1,806,0.9,1,-1
21,2,9,-1,-1,1130,0.9,1,-1
22,2,9,-1,-1,917,1,1,-1
23,2,9,-1,-1,1001,0.85,1,-1
24,2,9,-1,-1,738,0.95,1,-1
25,2,9,-1,-1,663,0.85,1,-1
26,2,9,-1,-1,1211,1,1,-1
27,2,9,-1,-1,1107,0.95,1,-1
28,2,9,-1,-1,2076,0.55,1,-1
29,2,9,-1,-1,641,1,1,-1
30,2,9,-1,-1,786,0.9,1,-1
1,3,9,-1,-1,337,0.6,1,1
2,3,9,-1,-1,547,0.95,1,1
3,3,9,-1,-1,446,0.9,1,1
4,3,9,-1,-1,424,0.9,1,1
5,3,9,-1,-1,491,1,1,1
6,3,9,-1,-1,463,1,1,1
7,3,9,-1,-1,545,1,1,1
8,3,9,-1,-1,598,0.9,1,1
9,3,9,-1,-1,424,0.6,1,1
10,3,9,-1,-1,415,0.95,1,1
11,3,9,-1,-1,484,0.55,1,1
12,3,9,-1,-1,449,0.7,1,1
13,3,9,-1,-1,720,1,1,-1
14,3,9,-1,-1,769,0.8,1,-1
15,3,9,-1,-1,562,1,1,-1
16,3,9,-1,-1,564,0.85,1,-1
17,3,9,-1,-1,906,0.9,1,-1
18,3,9,-1,-1,776,0.8,1,-1
19,3,9,-1,-1,784,0.95,1,-1
20,3,9,-1,-1,767,0.95,1,-1
21,3,9,-1,-1,929,1,1,-1
22,3,9,-1,-1,1023,1,1,-1
23,3,9,-1,-1,671,0.7,1,-1
24,3,9,-1,-1,728,0.75,0,-1
25,3,9,-1,-1,697,0.9,1,-1
26,3,9,-1,-1,1044,1,1,-1
27,3,9,-1,-1,1257,0.75,1,-1
28,3,9,-1,-1,972,0.8,1,-1
29,3,9,-1,-1,751,1,1,-1
30,3,9,-1,-1,580,1,1,-1
1,1,9,1,1,359,0.6,1,1
2,1,9,1,1,599,0.7,1,1
3,1,9,1,1,489,0.8,1,1
4,1,9,1,1,597,0.5,1,1
5,1,9,1,1,650,0.75,0,1
6,1,9,1,1,515,1,1,1
7,1,9,1,1,471,0.75,1,1
8,1,9,1,1,481,0.6,0,1
9,1,9,1,1,699,0.75,1,1
10,1,9,1,1,396,1,1,1
11,1,9,1,1,489,0.5,0,1
12,1,9,1,1,570,0.55,1,1
13,1,9,1,1,1790,0.85,1,-1
14,1,9,1,1,762,1,1,-1
15,1,9,1,1,2008,0.8,1,-1
16,1,9,1,1,1009,0.5,1,-1
17,1,9,1,1,1107,0.8,1,-1
18,1,9,1,1,1110,0.8,1,-1
19,1,9,1,1,1845,0.8,1,-1
20,1,9,1,1,1069,0.85,0,-1
21,1,9,1,1,949,0.6,1,-1
22,1,9,1,1,1966,0.55,1,-1
23,1,9,1,1,778,0.8,1,-1
24,1,9,1,1,678,0.7,0,-1
25,1,9,1,1,1015,0.7,1,-1
26,1,9,1,1,1554,0.85,0,-1
27,1,9,1,1,1393,0.6,0,-1
28,1,9,1,1,2225,0.75,0,-1
29,1,9,1,1,1422,0.5,0,-1
30,1,9,1,1,1102,0.9,0,-1
1,2,9,1,1,455,0.55,1,1
2,2,9,1,1,599,0.85,1,1
3,2,9,1,1,429,0.9,1,1
4,2,9,1,1,438,0.85,1,1
5,2,9,1,1,487,0.9,1,1
6,2,9,1,1,442,0.85,1,1
7,2,9,1,1,422,1,1,1
8,2,9,1,1,394,0.5,0,1
9,2,9,1,1,535,0.7,1,1
10,2,9,1,1,378,1,1,1
11,2,9,1,1,463,0.8,0,1
12,2,9,1,1,392,0.6,0,1
13,2,9,1,1,2767,0.6,0,-1
14,2,9,1,1,621,0.6,1,-1
15,2,9,1,1,1115,1,1,-1
16,2,9,1,1,901,0.6,0,-1
17,2,9,1,1,1998,0.65,1,-1
18,2,9,1,1,2129,0.6,0,-1
19,2,9,1,1,662,0.85,1,-1
20,2,9,1,1,1387,0.7,1,-1
21,2,9,1,1,1288,0.8,1,-1
22,2,9,1,1,1777,0.5,1,-1
23,2,9,1,1,683,0.95,1,-1
24,2,9,1,1,274,0.75,1,-1
25,2,9,1,1,2580,0.6,1,-1
26,2,9,1,1,607,0.5,1,-1
27,2,9,1,1,1037,0.85,1,-1
28,2,9,1,1,2116,0.8,1,-1
29,2,9,1,1,1287,0.5,1,-1
30,2,9,1,1,1568,0.9,0,-1
1,3,9,1,1,347,0.6,1,1
2,3,9,1,1,563,0.6,0,1
3,3,9,1,1,432,0.85,1,1
4,3,9,1,1,448,0.9,1,1
5,3,9,1,1,589,1,1,1
6,3,9,1,1,462,0.8,1,1
7,3,9,1,1,533,1,1,1
8,3,9,1,1,411,0.8,1,1
9,3,9,1,1,543,0.7,1,1
10,3,9,1,1,324,0.95,1,1
11,3,9,1,1,NaN,0.65,NaN,1
12,3,9,1,1,541,0.6,1,1
13,3,9,1,1,873,1,1,-1
14,3,9,1,1,799,0.9,1,-1
15,3,9,1,1,1178,0.95,1,-1
16,3,9,1,1,754,0.7,1,-1
17,3,9,1,1,1428,0.8,1,-1
18,3,9,1,1,1031,0.7,1,-1
19,3,9,1,1,922,1,1,-1
20,3,9,1,1,688,0.5,0,-1
21,3,9,1,1,878,0.85,1,-1
22,3,9,1,1,1613,0.9,1,-1
23,3,9,1,1,773,0.75,1,-1
24,3,9,1,1,1157,0.8,0,-1
25,3,9,1,1,939,0.6,1,-1
26,3,9,1,1,1340,0.5,0,-1
27,3,9,1,1,1083,0.85,1,-1
28,3,9,1,1,744,0.9,1,-1
29,3,9,1,1,1820,0.5,1,-1
30,3,9,1,1,986,0.9,1,-1
1,1,9,1,-1,314,0.6,1,1
2,1,9,1,-1,573,0.95,1,1
3,1,9,1,-1,421,0.85,1,1
4,1,9,1,-1,584,1,1,1
5,1,9,1,-1,751,0.7,0,1
6,1,9,1,-1,474,1,0,1
7,1,9,1,-1,525,0.75,1,1
8,1,9,1,-1,549,0.75,0,1
9,1,9,1,-1,721,0.75,1,1
10,1,9,1,-1,452,0.9,0,1
11,1,9,1,-1,614,0.85,0,1
12,1,9,1,-1,473,0.55,1,1
13,1,9,1,-1,1309,0.9,0,-1
14,1,9,1,-1,1962,0.5,0,-1
15,1,9,1,-1,1574,0.9,1,-1
16,1,9,1,-1,1006,0.5,1,-1
17,1,9,1,-1,1579,0.75,1,-1
18,1,9,1,-1,759,0.85,1,-1
19,1,9,1,-1,2139,0.75,0,-1
20,1,9,1,-1,1933,0.65,0,-1
21,1,9,1,-1,1331,0.75,0,-1
22,1,9,1,-1,1708,1,1,-1
23,1,9,1,-1,2563,0.7,0,-1
24,1,9,1,-1,702,0.75,1,-1
25,1,9,1,-1,1047,0.9,0,-1
26,1,9,1,-1,1293,0.5,0,-1
27,1,9,1,-1,NaN,0.5,NaN,-1
28,1,9,1,-1,2527,0.55,0,-1
29,1,9,1,-1,1396,0.5,1,-1
30,1,9,1,-1,1216,0.95,1,-1
1,2,9,1,-1,657,0.5,1,1
2,2,9,1,-1,584,0.7,1,1
3,2,9,1,-1,541,0.9,1,1
4,2,9,1,-1,427,0.95,1,1
5,2,9,1,-1,461,0.6,0,1
6,2,9,1,-1,464,0.8,1,1
7,2,9,1,-1,504,1,1,1
8,2,9,1,-1,374,0.7,0,1
9,2,9,1,-1,573,0.75,1,1
10,2,9,1,-1,434,0.9,1,1
11,2,9,1,-1,463,0.7,1,1
12,2,9,1,-1,431,0.55,1,1
13,2,9,1,-1,1455,0.65,1,-1
14,2,9,1,-1,865,0.7,1,-1
15,2,9,1,-1,1192,1,1,-1
16,2,9,1,-1,846,0.65,1,-1
17,2,9,1,-1,1794,0.85,1,-1
18,2,9,1,-1,662,0.9,1,-1
19,2,9,1,-1,743,0.9,1,-1
20,2,9,1,-1,616,0.9,1,-1
21,2,9,1,-1,895,0.9,1,-1
22,2,9,1,-1,971,1,1,-1
23,2,9,1,-1,2241,0.5,1,-1
24,2,9,1,-1,920,0.9,1,-1
25,2,9,1,-1,852,0.75,1,-1
26,2,9,1,-1,1144,1,1,-1
27,2,9,1,-1,1333,0.8,0,-1
28,2,9,1,-1,1005,0.85,1,-1
29,2,9,1,-1,1482,0.5,0,-1
30,2,9,1,-1,911,0.95,1,-1
1,3,9,1,-1,425,0.55,1,1
2,3,9,1,-1,594,0.95,1,1
3,3,9,1,-1,432,0.8,1,1
4,3,9,1,-1,489,1,1,1
5,3,9,1,-1,475,1,1,1
6,3,9,1,-1,378,0.55,1,1
7,3,9,1,-1,433,1,1,1
8,3,9,1,-1,349,0.75,1,1
9,3,9,1,-1,525,0.75,1,1
10,3,9,1,-1,416,0.95,1,1
11,3,9,1,-1,NaN,0.8,NaN,1
12,3,9,1,-1,408,0.6,1,1
13,3,9,1,-1,1297,0.85,0,-1
14,3,9,1,-1,480,0.8,1,-1
15,3,9,1,-1,999,1,1,-1
16,3,9,1,-1,749,0.55,1,-1
17,3,9,1,-1,809,0.9,1,-1
18,3,9,1,-1,652,0.7,1,-1
19,3,9,1,-1,684,1,1,-1
20,3,9,1,-1,NaN,0.7,NaN,-1
21,3,9,1,-1,1072,1,0,-1
22,3,9,1,-1,665,1,1,-1
23,3,9,1,-1,1044,0.75,1,-1
24,3,9,1,-1,641,0.9,1,-1
25,3,9,1,-1,841,0.65,1,-1
26,3,9,1,-1,666,1,1,-1
27,3,9,1,-1,663,0.85,1,-1
28,3,9,1,-1,739,0.75,1,-1
29,3,9,1,-1,1526,0.5,1,-1
30,3,9,1,-1,827,1,1,-1
1,1,10,-1,1,470,0.65,1,1
2,1,10,-1,1,512,0.8,1,1
3,1,10,-1,1,590,0.85,1,1
4,1,10,-1,1,461,1,0,1
5,1,10,-1,1,478,0.7,0,1
6,1,10,-1,1,451,1,1,1
7,1,10,-1,1,485,0.6,1,1
8,1,10,-1,1,448,0.8,0,1
9,1,10,-1,1,520,0.6,0,1
10,1,10,-1,1,433,1,1,1
11,1,10,-1,1,425,0.9,1,1
12,1,10,-1,1,417,0.7,1,1
13,1,10,-1,1,1899,0.9,0,-1
14,1,10,-1,1,1904,1,0,-1
15,1,10,-1,1,1604,0.9,1,-1
16,1,10,-1,1,723,1,0,-1
17,1,10,-1,1,1493,0.8,0,-1
18,1,10,-1,1,590,0.9,0,-1
19,1,10,-1,1,1373,0.9,1,-1
20,1,10,-1,1,935,0.85,1,-1
21,1,10,-1,1,1067,1,1,-1
22,1,10,-1,1,1151,1,1,-1
23,1,10,-1,1,1830,0.85,1,-1
24,1,10,-1,1,503,0.65,0,-1
25,1,10,-1,1,810,0.9,0,-1
26,1,10,-1,1,1156,0.7,1,-1
27,1,10,-1,1,1634,0.9,1,-1
28,1,10,-1,1,1055,0.9,1,-1
29,1,10,-1,1,636,0.7,1,-1
30,1,10,-1,1,1059,0.9,0,-1
1,2,10,-1,1,390,0.6,1,1
2,2,10,-1,1,580,0.75,0,1
3,2,10,-1,1,638,0.85,0,1
4,2,10,-1,1,428,0.85,1,1
5,2,10,-1,1,586,0.9,1,1
6,2,10,-1,1,480,0.9,1,1
7,2,10,-1,1,408,1,1,1
8,2,10,-1,1,532,0.9,0,1
9,2,10,-1,1,605,0.75,1,1
10,2,10,-1,1,326,1,1,1
11,2,10,-1,1,505,0.65,0,1
12,2,10,-1,1,450,0.55,1,1
13,2,10,-1,1,1286,1,0,-1
14,2,10,-1,1,905,0.9,1,-1
15,2,10,-1,1,1319,1,1,-1
16,2,10,-1,1,767,0.9,1,-1
17,2,10,-1,1,935,0.9,1,-1
18,2,10,-1,1,657,0.9,1,-1
19,2,10,-1,1,476,0.9,1,-1
20,2,10,-1,1,622,0.95,1,-1
21,2,10,-1,1,786,1,1,-1
22,2,10,-1,1,1847,0.55,1,-1
23,2,10,-1,1,1729,0.9,0,-1
24,2,10,-1,1,873,0.9,1,-1
25,2,10,-1,1,1374,0.75,1,-1
26,2,10,-1,1,715,1,1,-1
27,2,10,-1,1,1649,0.85,0,-1
28,2,10,-1,1,NaN,0.5,NaN,-1
29,2,10,-1,1,1213,0.55,0,-1
30,2,10,-1,1,1075,0.95,0,-1
1,3,10,-1,1,306,0.75,1,1
2,3,10,-1,1,488,0.9,1,1
3,3,10,-1,1,402,1,1,1
4,3,10,-1,1,478,1,1,1
5,3,10,-1,1,585,1,1,1
6,3,10,-1,1,383,0.8,0,1
7,3,10,-1,1,438,1,1,1
8,3,10,-1,1,376,1,1,1
9,3,10,-1,1,564,0.7,1,1
10,3,10,-1,1,342,0.7,1,1
11,3,10,-1,1,496,0.85,1,1
12,3,10,-1,1,360,0.5,1,1
13,3,10,-1,1,1068,1,1,-1
14,3,10,-1,1,1467,0.85,1,-1
15,3,10,-1,1,1243,1,0,-1
16,3,10,-1,1,664,0.9,1,-1
17,3,10,-1,1,645,0.9,1,-1
18,3,10,-1,1,547,0.7,1,-1
19,3,10,-1,1,749,0.95,1,-1
20,3,10,-1,1,1688,0.95,1,-1
21,3,10,-1,1,1025,1,1,-1
22,3,10,-1,1,1472,0.95,1,-1
23,3,10,-1,1,771,0.85,1,-1
24,3,10,-1,1,668,0.65,0,-1
25,3,10,-1,1,882,0.9,1,-1
26,3,10,-1,1,1326,0.75,1,-1
27,3,10,-1,1,1183,0.8,0,-1
28,3,10,-1,1,774,0.9,1,-1
29,3,10,-1,1,1548,1,1,-1
30,3,10,-1,1,550,1,1,-1
1,1,10,-1,-1,370,0.55,1,1
2,1,10,-1,-1,668,0.85,0,1
3,1,10,-1,-1,470,0.75,1,1
4,1,10,-1,-1,347,1,1,1
5,1,10,-1,-1,473,0.8,1,1
6,1,10,-1,-1,532,1,1,1
7,1,10,-1,-1,512,1,1,1
8,1,10,-1,-1,262,0.8,0,1
9,1,10,-1,-1,646,0.7,1,1
10,1,10,-1,-1,437,1,1,1
11,1,10,-1,-1,500,0.8,1,1
12,1,10,-1,-1,418,0.7,1,1
13,1,10,-1,-1,1297,0.9,1,-1
14,1,10,-1,-1,1367,1,1,-1
15,1,10,-1,-1,1599,0.8,0,-1
16,1,10,-1,-1,617,1,0,-1
17,1,10,-1,-1,2145,0.75,0,-1
18,1,10,-1,-1,543,0.85,1,-1
19,1,10,-1,-1,1440,0.85,1,-1
20,1,10,-1,-1,788,0.8,0,-1
21,1,10,-1,-1,861,0.65,0,-1
22,1,10,-1,-1,2335,1,1,-1
23,1,10,-1,-1,2004,0.75,1,-1
24,1,10,-1,-1,918,0.8,0,-1
25,1,10,-1,-1,1141,0.95,1,-1
26,1,10,-1,-1,NaN,0.75,NaN,-1
27,1,10,-1,-1,2375,0.9,1,-1
28,1,10,-1,-1,2847,0.6,0,-1
29,1,10,-1,-1,1369,0.5,1,-1
30,1,10,-1,-1,1598,0.85,1,-1
1,2,10,-1,-1,400,0.55,1,1
2,2,10,-1,-1,806,1,1,1
3,2,10,-1,-1,828,0.9,1,1
4,2,10,-1,-1,448,1,1,1
5,2,10,-1,-1,571,0.8,1,1
6,2,10,-1,-1,399,0.85,1,1
7,2,10,-1,-1,462,1,1,1
8,2,10,-1,-1,709,1,1,1
9,2,10,-1,-1,601,0.85,1,1
10,2,10,-1,-1,436,1,1,1
11,2,10,-1,-1,429,0.8,1,1
12,2,10,-1,-1,416,0.55,1,1
13,2,10,-1,-1,746,0.5,0,-1
14,2,10,-1,-1,1133,0.9,1,-1
15,2,10,-1,-1,1167,0.9,1,-1
16,2,10,-1,-1,589,0.95,1,-1
17,2,10,-1,-1,1275,0.85,1,-1
18,2,10,-1,-1,624,0.75,0,-1
19,2,10,-1,-1,758,1,1,-1
20,2,10,-1,-1,548,0.95,1,-1
21,2,10,-1,-1,897,0.9,1,-1
22,2,10,-1,-1,998,1,1,-1
23,2,10,-1,-1,887,0.8,1,-1
24,2,10,-1,-1,786,0.85,1,-1
25,2,10,-1,-1,913,0.9,1,-1
26,2,10,-1,-1,653,1,1,-1
27,2,10,-1,-1,1034,0.95,1,-1
28,2,10,-1,-1,2223,0.8,1,-1
29,2,10,-1,-1,783,1,1,-1
30,2,10,-1,-1,669,0.95,1,-1
1,3,10,-1,-1,371,0.55,1,1
2,3,10,-1,-1,584,0.95,1,1
3,3,10,-1,-1,515,0.95,1,1
4,3,10,-1,-1,462,1,1,1
5,3,10,-1,-1,534,1,1,1
6,3,10,-1,-1,381,0.75,1,1
7,3,10,-1,-1,521,1,1,1
8,3,10,-1,-1,407,0.9,1,1
9,3,10,-1,-1,581,0.7,1,1
10,3,10,-1,-1,354,1,1,1
11,3,10,-1,-1,859,0.7,1,1
12,3,10,-1,-1,382,0.75,1,1
13,3,10,-1,-1,927,1,1,-1
14,3,10,-1,-1,811,0.8,1,-1
15,3,10,-1,-1,952,1,1,-1
16,3,10,-1,-1,832,0.85,1,-1
17,3,10,-1,-1,1007,1,1,-1
18,3,10,-1,-1,597,0.75,1,-1
19,3,10,-1,-1,853,1,1,-1
20,3,10,-1,-1,767,0.95,1,-1
21,3,10,-1,-1,868,1,1,-1
22,3,10,-1,-1,1407,1,1,-1
23,3,10,-1,-1,698,0.75,1,-1
24,3,10,-1,-1,763,0.9,0,-1
25,3,10,-1,-1,951,0.85,1,-1
26,3,10,-1,-1,1229,1,1,-1
27,3,10,-1,-1,1385,0.85,1,-1
28,3,10,-1,-1,756,0.85,1,-1
29,3,10,-1,-1,681,1,1,-1
30,3,10,-1,-1,828,1,1,-1
1,1,10,1,1,580,0.6,0,1
2,1,10,1,1,697,0.65,0,1
3,1,10,1,1,585,0.75,1,1
4,1,10,1,1,535,0.7,0,1
5,1,10,1,1,932,0.9,0,1
6,1,10,1,1,780,0.9,1,1
7,1,10,1,1,444,0.6,1,1
8,1,10,1,1,572,0.75,1,1
9,1,10,1,1,593,0.65,1,1
10,1,10,1,1,436,1,1,1
11,1,10,1,1,472,0.6,1,1
12,1,10,1,1,387,0.65,1,1
13,1,10,1,1,974,0.9,1,-1
14,1,10,1,1,2134,1,1,-1
15,1,10,1,1,1093,1,1,-1
16,1,10,1,1,949,0.5,0,-1
17,1,10,1,1,1060,0.75,1,-1
18,1,10,1,1,922,0.85,1,-1
19,1,10,1,1,874,0.9,1,-1
20,1,10,1,1,1191,0.7,0,-1
21,1,10,1,1,1103,0.6,1,-1
22,1,10,1,1,955,0.65,1,-1
23,1,10,1,1,1126,0.75,1,-1
24,1,10,1,1,1352,0.75,0,-1
25,1,10,1,1,1197,0.7,1,-1
26,1,10,1,1,1660,0.85,0,-1
27,1,10,1,1,1127,0.9,1,-1
28,1,10,1,1,2054,0.5,1,-1
29,1,10,1,1,1187,0.5,1,-1
30,1,10,1,1,850,0.9,0,-1
1,2,10,1,1,402,0.55,0,1
2,2,10,1,1,484,0.65,1,1
3,2,10,1,1,390,0.95,1,1
4,2,10,1,1,455,1,1,1
5,2,10,1,1,622,0.95,1,1
6,2,10,1,1,363,0.8,1,1
7,2,10,1,1,425,1,1,1
8,2,10,1,1,NaN,0.55,NaN,1
9,2,10,1,1,514,0.75,1,1
10,2,10,1,1,443,1,1,1
11,2,10,1,1,707,0.85,0,1
12,2,10,1,1,468,0.55,0,1
13,2,10,1,1,1641,0.5,0,-1
14,2,10,1,1,639,0.6,1,-1
15,2,10,1,1,975,1,1,-1
16,2,10,1,1,1233,0.6,0,-1
17,2,10,1,1,1079,0.65,0,-1
18,2,10,1,1,815,0.65,1,-1
19,2,10,1,1,872,1,1,-1
20,2,10,1,1,1467,0.75,1,-1
21,2,10,1,1,2424,0.75,0,-1
22,2,10,1,1,795,0.5,1,-1
23,2,10,1,1,677,0.9,1,-1
24,2,10,1,1,804,1,0,-1
25,2,10,1,1,2567,0.7,1,-1
26,2,10,1,1,1382,0.7,1,-1
27,2,10,1,1,1057,0.8,1,-1
28,2,10,1,1,1807,0.75,1,-1
29,2,10,1,1,1366,0.5,1,-1
30,2,10,1,1,965,0.9,1,-1
1,3,10,1,1,333,0.6,1,1
2,3,10,1,1,468,0.65,0,1
3,3,10,1,1,440,0.9,1,1
4,3,10,1,1,464,0.9,1,1
5,3,10,1,1,532,1,1,1
6,3,10,1,1,407,0.8,1,1
7,3,10,1,1,473,1,1,1
8,3,10,1,1,376,0.85,1,1
9,3,10,1,1,575,0.75,1,1
10,3,10,1,1,431,0.9,1,1
11,3,10,1,1,454,0.9,0,1
12,3,10,1,1,329,0.75,1,1
13,3,10,1,1,783,1,1,-1
14,3,10,1,1,754,0.8,1,-1
15,3,10,1,1,969,0.95,1,-1
16,3,10,1,1,833,0.6,1,-1
17,3,10,1,1,1218,0.65,1,-1
18,3,10,1,1,1136,0.65,1,-1
19,3,10,1,1,625,1,1,-1
20,3,10,1,1,1218,0.55,0,-1
21,3,10,1,1,873,0.9,1,-1
22,3,10,1,1,970,0.9,1,-1
23,3,10,1,1,1008,0.75,1,-1
24,3,10,1,1,1203,0.8,0,-1
25,3,10,1,1,1009,0.55,1,-1
26,3,10,1,1,1129,0.5,1,-1
27,3,10,1,1,837,0.85,1,-1
28,3,10,1,1,1121,0.75,1,-1
29,3,10,1,1,2157,0.5,0,-1
30,3,10,1,1,871,0.95,1,-1
1,1,10,1,-1,353,0.6,0,1
2,1,10,1,-1,640,0.9,1,1
3,1,10,1,-1,470,0.85,1,1
4,1,10,1,-1,616,1,1,1
5,1,10,1,-1,NaN,0.55,NaN,1
6,1,10,1,-1,511,1,0,1
7,1,10,1,-1,594,1,1,1
8,1,10,1,-1,486,0.8,0,1
9,1,10,1,-1,883,0.75,1,1
10,1,10,1,-1,522,0.75,0,1
11,1,10,1,-1,NaN,0.9,NaN,1
12,1,10,1,-1,439,0.6,1,1
13,1,10,1,-1,1239,0.9,1,-1
14,1,10,1,-1,1837,1,0,-1
15,1,10,1,-1,1656,0.9,1,-1
16,1,10,1,-1,981,0.5,1,-1
17,1,10,1,-1,1363,0.75,1,-1
18,1,10,1,-1,722,0.85,1,-1
19,1,10,1,-1,1499,0.85,1,-1
20,1,10,1,-1,1873,0.55,1,-1
21,1,10,1,-1,1035,0.65,0,-1
22,1,10,1,-1,1227,1,1,-1
23,1,10,1,-1,2642,0.75,1,-1
24,1,10,1,-1,1738,0.75,1,-1
25,1,10,1,-1,748,0.9,0,-1
26,1,10,1,-1,1963,0.65,1,-1
27,1,10,1,-1,2015,0.65,0,-1
28,1,10,1,-1,2784,0.8,1,-1
29,1,10,1,-1,1292,0.5,1,-1
30,1,10,1,-1,1207,0.9,1,-1
1,2,10,1,-1,605,0.55,1,1
2,2,10,1,-1,572,0.65,1,1
3,2,10,1,-1,570,0.9,1,1
4,2,10,1,-1,428,0.9,1,1
5,2,10,1,-1,497,0.55,0,1
6,2,10,1,-1,460,0.8,1,1
7,2,10,1,-1,362,1,1,1
8,2,10,1,-1,399,0.6,0,1
9,2,10,1,-1,570,0.85,1,1
10,2,10,1,-1,588,0.95,1,1
11,2,10,1,-1,NaN,0.75,NaN,1
12,2,10,1,-1,607,0.55,1,1
13,2,10,1,-1,2362,0.85,1,-1
14,2,10,1,-1,1916,0.5,0,-1
15,2,10,1,-1,1056,1,1,-1
16,2,10,1,-1,932,0.6,1,-1
17,2,10,1,-1,2069,0.6,0,-1
18,2,10,1,-1,885,0.9,1,-1
19,2,10,1,-1,926,0.95,1,-1
20,2,10,1,-1,678,0.9,1,-1
21,2,10,1,-1,1398,0.9,1,-1
22,2,10,1,-1,827,1,1,-1
23,2,10,1,-1,1156,0.7,1,-1
24,2,10,1,-1,665,0.95,1,-1
25,2,10,1,-1,1646,0.65,1,-1
26,2,10,1,-1,878,1,1,-1
27,2,10,1,-1,1089,0.75,0,-1
28,2,10,1,-1,1265,0.95,1,-1
29,2,10,1,-1,1430,0.5,1,-1
30,2,10,1,-1,921,0.85,1,-1
1,3,10,1,-1,343,0.75,1,1
2,3,10,1,-1,538,0.85,1,1
3,3,10,1,-1,484,0.8,1,1
4,3,10,1,-1,450,0.95,1,1
5,3,10,1,-1,456,1,1,1
6,3,10,1,-1,804,0.6,1,1
7,3,10,1,-1,479,1,1,1
8,3,10,1,-1,411,0.6,1,1
9,3,10,1,-1,412,0.75,1,1
10,3,10,1,-1,383,0.95,1,1
11,3,10,1,-1,494,0.95,1,1
12,3,10,1,-1,432,0.6,1,1
13,3,10,1,-1,1226,1,0,-1
14,3,10,1,-1,860,0.75,1,-1
15,3,10,1,-1,837,1,1,-1
16,3,10,1,-1,814,0.55,1,-1
17,3,10,1,-1,710,0.9,1,-1
18,3,10,1,-1,752,0.7,1,-1
19,3,10,1,-1,1502,0.95,1,-1
20,3,10,1,-1,965,0.85,1,-1
21,3,10,1,-1,1054,1,0,-1
22,3,10,1,-1,578,1,1,-1
23,3,10,1,-1,1328,0.75,1,-1
24,3,10,1,-1,618,0.75,0,-1
25,3,10,1,-1,1103,0.7,1,-1
26,3,10,1,-1,694,1,1,-1
27,3,10,1,-1,1680,0.85,1,-1
28,3,10,1,-1,856,0.85,1,-1
29,3,10,1,-1,1106,0.5,0,-1
30,3,10,1,-1,660,0.95,1,-1
1,1,11,-1,1,363,0.55,1,1
2,1,11,-1,1,550,0.85,1,1
3,1,11,-1,1,369,0.95,1,1
4,1,11,-1,1,686,0.9,0,1
5,1,11,-1,1,634,0.8,0,1
6,1,11,-1,1,476,1,1,1
7,1,11,-1,1,450,1,1,1
8,1,11,-1,1,428,0.9,0,1
9,1,11,-1,1,555,0.7,0,1
10,1,11,-1,1,413,1,1,1
11,1,11,-1,1,419,0.95,1,1
12,1,11,-1,1,422,0.65,1,1
13,1,11,-1,1,1108,0.9,1,-1
14,1,11,-1,1,1175,1,0,-1
15,1,11,-1,1,1523,0.9,1,-1
16,1,11,-1,1,582,1,0,-1
17,1,11,-1,1,1907,0.75,0,-1
18,1,11,-1,1,563,0.85,0,-1
19,1,11,-1,1,1981,0.85,1,-1
20,1,11,-1,1,638,0.85,1,-1
21,1,11,-1,1,1043,1,1,-1
22,1,11,-1,1,1323,1,1,-1
23,1,11,-1,1,2107,0.7,0,-1
24,1,11,-1,1,718,0.8,1,-1
25,1,11,-1,1,1036,0.9,0,-1
26,1,11,-1,1,1183,0.9,1,-1
27,1,11,-1,1,1253,0.9,1,-1
28,1,11,-1,1,1094,0.7,1,-1
29,1,11,-1,1,593,0.9,1,-1
30,1,11,-1,1,840,0.9,0,-1
1,2,11,-1,1,522,0.75,1,1
2,2,11,-1,1,416,0.65,0,1
3,2,11,-1,1,423,0.9,1,1
4,2,11,-1,1,420,0.95,1,1
5,2,11,-1,1,513,0.9,1,1
6,2,11,-1,1,NaN,0.75,NaN,1
7,2,11,-1,1,489,1,1,1
8,2,11,-1,1,487,1,1,1
9,2,11,-1,1,524,0.65,1,1
10,2,11,-1,1,485,1,1,1
11,2,11,-1,1,534,0.7,1,1
12,2,11,-1,1,408,0.6,1,1
13,2,11,-1,1,1445,0.95,0,-1
14,2,11,-1,1,1328,0.9,1,-1
15,2,11,-1,1,941,1,1,-1
16,2,11,-1,1,840,0.9,1,-1
17,2,11,-1,1,1084,1,1,-1
18,2,11,-1,1,613,0.9,1,-1
19,2,11,-1,1,638,0.95,1,-1
20,2,11,-1,1,662,0.95,1,-1
21,2,11,-1,1,1092,1,1,-1
22,2,11,-1,1,1504,0.6,1,-1
23,2,11,-1,1,1091,0.6,1,-1
24,2,11,-1,1,772,0.95,1,-1
25,2,11,-1,1,1006,0.8,1,-1
26,2,11,-1,1,819,1,1,-1
27,2,11,-1,1,2368,0.6,0,-1
28,2,11,-1,1,2114,0.8,0,-1
29,2,11,-1,1,1063,0.6,0,-1
30,2,11,-1,1,714,0.9,0,-1
1,3,11,-1,1,374,0.55,1,1
2,3,11,-1,1,573,0.9,1,1
3,3,11,-1,1,445,1,1,1
4,3,11,-1,1,469,1,1,1
5,3,11,-1,1,759,1,1,1
6,3,11,-1,1,389,0.7,0,1
7,3,11,-1,1,577,1,1,1
8,3,11,-1,1,376,1,1,1
9,3,11,-1,1,533,0.7,1,1
10,3,11,-1,1,392,0.85,1,1
11,3,11,-1,1,565,0.65,1,1
12,3,11,-1,1,405,0.5,1,1
13,3,11,-1,1,774,1,1,-1
14,3,11,-1,1,682,0.9,1,-1
15,3,11,-1,1,1091,1,0,-1
16,3,11,-1,1,899,0.85,1,-1
17,3,11,-1,1,830,0.85,1,-1
18,3,11,-1,1,674,0.8,1,-1
19,3,11,-1,1,790,0.95,1,-1
20,3,11,-1,1,937,0.95,1,-1
21,3,11,-1,1,809,1,1,-1
22,3,11,-1,1,782,0.95,1,-1
23,3,11,-1,1,639,0.8,1,-1
24,3,11,-1,1,571,0.75,0,-1
25,3,11,-1,1,893,0.85,1,-1
26,3,11,-1,1,729,0.7,1,-1
27,3,11,-1,1,1775,0.85,0,-1
28,3,11,-1,1,835,0.95,1,-1
29,3,11,-1,1,1504,1,0,-1
30,3,11,-1,1,620,1,1,-1
1,1,11,-1,-1,500,0.55,1,1
2,1,11,-1,-1,551,0.8,1,1
3,1,11,-1,-1,490,0.9,1,1
4,1,11,-1,-1,399,1,1,1
5,1,11,-1,-1,513,0.9,1,1
6,1,11,-1,-1,NaN,0.6,NaN,1
7,1,11,-1,-1,469,1,1,1
8,1,11,-1,-1,487,0.75,0,1
9,1,11,-1,-1,677,0.7,1,1
10,1,11,-1,-1,360,1,1,1
11,1,11,-1,-1,654,0.9,1,1
12,1,11,-1,-1,496,0.7,1,1
13,1,11,-1,-1,1516,0.8,1,-1
14,1,11,-1,-1,1060,1,1,-1
15,1,11,-1,-1,1392,0.9,1,-1
16,1,11,-1,-1,588,1,0,-1
17,1,11,-1,-1,1195,0.75,0,-1
18,1,11,-1,-1,615,0.9,1,-1
19,1,11,-1,-1,1423,0.9,1,-1
20,1,11,-1,-1,914,0.6,0,-1
21,1,11,-1,-1,833,0.8,0,-1
22,1,11,-1,-1,1228,1,1,-1
23,1,11,-1,-1,1076,0.8,1,-1
24,1,11,-1,-1,605,0.65,0,-1
25,1,11,-1,-1,864,0.95,1,-1
26,1,11,-1,-1,1514,0.7,1,-1
27,1,11,-1,-1,1062,0.85,1,-1
28,1,11,-1,-1,654,0.9,0,-1
29,1,11,-1,-1,1365,0.5,1,-1
30,1,11,-1,-1,1021,0.9,1,-1
1,2,11,-1,-1,354,0.55,1,1
2,2,11,-1,-1,520,1,1,1
3,2,11,-1,-1,433,0.95,1,1
4,2,11,-1,-1,572,1,1,1
5,2,11,-1,-1,505,0.95,1,1
6,2,11,-1,-1,573,0.85,1,1
7,2,11,-1,-1,429,1,1,1
8,2,11,-1,-1,404,0.95,1,1
9,2,11,-1,-1,501,0.8,1,1
10,2,11,-1,-1,411,1,1,1
11,2,11,-1,-1,820,0.75,0,1
12,2,11,-1,-1,408,0.55,1,1
13,2,11,-1,-1,653,1,1,-1
14,2,11,-1,-1,1041,1,1,-1
15,2,11,-1,-1,2161,0.75,1,-1
16,2,11,-1,-1,834,0.95,1,-1
17,2,11,-1,-1,817,0.9,1,-1
18,2,11,-1,-1,884,0.8,0,-1
19,2,11,-1,-1,666,1,1,-1
20,2,11,-1,-1,758,0.95,1,-1
21,2,11,-1,-1,794,1,1,-1
22,2,11,-1,-1,835,1,1,-1
23,2,11,-1,-1,607,0.75,1,-1
24,2,11,-1,-1,829,0.95,1,-1
25,2,11,-1,-1,730,0.9,1,-1
26,2,11,-1,-1,859,1,1,-1
27,2,11,-1,-1,1115,0.95,1,-1
28,2,11,-1,-1,1495,0.6,1,-1
29,2,11,-1,-1,660,1,1,-1
30,2,11,-1,-1,673,1,1,-1
1,3,11,-1,-1,363,0.8,1,1
2,3,11,-1,-1,535,0.95,1,1
3,3,11,-1,-1,707,0.95,1,1
4,3,11,-1,-1,667,0.9,1,1
5,3,11,-1,-1,526,1,1,1
6,3,11,-1,-1,419,0.75,1,1
7,3,11,-1,-1,442,1,1,1
8,3,11,-1,-1,387,0.9,1,1
9,3,11,-1,-1,612,0.65,1,1
10,3,11,-1,-1,416,0.95,1,1
11,3,11,-1,-1,1007,0.6,0,1
12,3,11,-1,-1,641,0.75,1,1
13,3,11,-1,-1,683,1,1,-1
14,3,11,-1,-1,820,0.8,1,-1
15,3,11,-1,-1,1262,1,1,-1
16,3,11,-1,-1,604,0.85,1,-1
17,3,11,-1,-1,938,0.95,1,-1
18,3,11,-1,-1,698,0.8,1,-1
19,3,11,-1,-1,465,1,1,-1
20,3,11,-1,-1,613,0.95,1,-1
21,3,11,-1,-1,757,1,1,-1
22,3,11,-1,-1,875,1,1,-1
23,3,11,-1,-1,634,0.75,1,-1
24,3,11,-1,-1,738,0.95,0,-1
25,3,11,-1,-1,1064,0.85,1,-1
26,3,11,-1,-1,888,1,1,-1
27,3,11,-1,-1,2134,0.85,1,-1
28,3,11,-1,-1,693,0.8,1,-1
29,3,11,-1,-1,1085,1,1,-1
30,3,11,-1,-1,573,1,1,-1
1,1,11,1,1,NaN,0.55,NaN,1
2,1,11,1,1,628,0.75,1,1
3,1,11,1,1,523,0.95,1,1
4,1,11,1,1,622,0.95,1,1
5,1,11,1,1,465,0.8,0,1
6,1,11,1,1,482,0.65,0,1
7,1,11,1,1,463,0.9,1,1
8,1,11,1,1,479,0.8,0,1
9,1,11,1,1,581,0.7,1,1
10,1,11,1,1,458,1,1,1
11,1,11,1,1,587,0.85,1,1
12,1,11,1,1,378,0.65,1,1
13,1,11,1,1,1414,0.8,0,-1
14,1,11,1,1,2067,0.75,1,-1
15,1,11,1,1,922,0.95,1,-1
16,1,11,1,1,1067,0.5,1,-1
17,1,11,1,1,888,0.8,1,-1
18,1,11,1,1,948,0.85,1,-1
19,1,11,1,1,830,0.95,1,-1
20,1,11,1,1,1646,0.6,1,-1
21,1,11,1,1,1286,0.6,1,-1
22,1,11,1,1,1812,0.5,0,-1
23,1,11,1,1,1218,0.75,1,-1
24,1,11,1,1,635,0.8,1,-1
25,1,11,1,1,1380,0.8,1,-1
26,1,11,1,1,1969,0.5,0,-1
27,1,11,1,1,1093,0.8,1,-1
28,1,11,1,1,1425,0.8,0,-1
29,1,11,1,1,1095,0.5,0,-1
30,1,11,1,1,963,0.9,1,-1
1,2,11,1,1,638,0.55,0,1
2,2,11,1,1,597,0.65,1,1
3,2,11,1,1,485,1,1,1
4,2,11,1,1,602,1,1,1
5,2,11,1,1,424,0.65,1,1
6,2,11,1,1,528,0.8,1,1
7,2,11,1,1,476,1,1,1
8,2,11,1,1,408,0.5,0,1
9,2,11,1,1,410,0.8,1,1
10,2,11,1,1,375,1,1,1
11,2,11,1,1,423,0.75,1,1
12,2,11,1,1,580,0.55,1,1
13,2,11,1,1,1219,0.5,0,-1
14,2,11,1,1,1510,0.8,1,-1
15,2,11,1,1,701,1,1,-1
16,2,11,1,1,1071,0.6,0,-1
17,2,11,1,1,1501,0.75,0,-1
18,2,11,1,1,1811,0.75,1,-1
19,2,11,1,1,855,0.95,1,-1
20,2,11,1,1,960,0.85,1,-1
21,2,11,1,1,1594,0.8,1,-1
22,2,11,1,1,1772,0.5,0,-1
23,2,11,1,1,600,0.8,1,-1
24,2,11,1,1,880,0.9,0,-1
25,2,11,1,1,1357,0.6,1,-1
26,2,11,1,1,818,0.7,1,-1
27,2,11,1,1,1969,0.85,1,-1
28,2,11,1,1,1836,0.6,1,-1
29,2,11,1,1,1465,0.5,1,-1
30,2,11,1,1,987,0.9,0,-1
1,3,11,1,1,317,0.55,1,1
2,3,11,1,1,502,0.65,1,1
3,3,11,1,1,402,0.95,1,1
4,3,11,1,1,594,0.85,1,1
5,3,11,1,1,590,1,1,1
6,3,11,1,1,459,0.75,0,1
7,3,11,1,1,480,1,1,1
8,3,11,1,1,433,0.9,1,1
9,3,11,1,1,428,0.65,1,1
10,3,11,1,1,568,0.95,1,1
11,3,11,1,1,758,0.95,0,1
12,3,11,1,1,349,0.75,1,1
13,3,11,1,1,804,1,1,-1
14,3,11,1,1,1919,0.85,1,-1
15,3,11,1,1,1131,1,1,-1
16,3,11,1,1,714,0.55,1,-1
17,3,11,1,1,1734,0.85,1,-1
18,3,11,1,1,1021,0.65,0,-1
19,3,11,1,1,644,0.95,1,-1
20,3,11,1,1,1078,0.8,1,-1
21,3,11,1,1,1047,0.85,1,-1
22,3,11,1,1,911,0.95,1,-1
23,3,11,1,1,639,0.75,1,-1
24,3,11,1,1,618,0.55,0,-1
25,3,11,1,1,926,0.6,1,-1
26,3,11,1,1,1059,0.65,1,-1
27,3,11,1,1,1077,0.8,1,-1
28,3,11,1,1,989,0.85,1,-1
29,3,11,1,1,1115,0.5,1,-1
30,3,11,1,1,1322,0.95,1,-1
1,1,11,1,-1,536,0.6,1,1
2,1,11,1,-1,715,0.95,1,1
3,1,11,1,-1,387,1,1,1
4,1,11,1,-1,635,0.95,1,1
5,1,11,1,-1,552,0.7,0,1
6,1,11,1,-1,645,1,1,1
7,1,11,1,-1,590,0.9,1,1
8,1,11,1,-1,583,0.75,0,1
9,1,11,1,-1,534,0.65,1,1
10,1,11,1,-1,445,1,1,1
11,1,11,1,-1,671,0.5,1,1
12,1,11,1,-1,455,0.6,1,1
13,1,11,1,-1,1164,0.9,1,-1
14,1,11,1,-1,1429,0.5,0,-1
15,1,11,1,-1,1333,0.95,1,-1
16,1,11,1,-1,1022,0.5,1,-1
17,1,11,1,-1,1804,0.75,0,-1
18,1,11,1,-1,818,0.85,1,-1
19,1,11,1,-1,1158,0.85,1,-1
20,1,11,1,-1,1903,0.65,1,-1
21,1,11,1,-1,1294,0.75,0,-1
22,1,11,1,-1,2455,0.8,1,-1
23,1,11,1,-1,1624,0.75,1,-1
24,1,11,1,-1,655,0.7,0,-1
25,1,11,1,-1,1030,0.85,0,-1
26,1,11,1,-1,1707,0.5,1,-1
27,1,11,1,-1,1555,0.7,1,-1
28,1,11,1,-1,1324,0.8,1,-1
29,1,11,1,-1,1293,0.5,1,-1
30,1,11,1,-1,1505,0.9,1,-1
1,2,11,1,-1,713,0.55,0,1
2,2,11,1,-1,686,0.75,1,1
3,2,11,1,-1,429,0.9,1,1
4,2,11,1,-1,373,1,1,1
5,2,11,1,-1,649,0.7,1,1
6,2,11,1,-1,463,0.8,1,1
7,2,11,1,-1,458,1,1,1
8,2,11,1,-1,537,0.55,0,1
9,2,11,1,-1,870,0.7,1,1
10,2,11,1,-1,381,1,1,1
11,2,11,1,-1,NaN,0.8,NaN,1
12,2,11,1,-1,502,0.55,1,1
13,2,11,1,-1,1153,0.95,1,-1
14,2,11,1,-1,1245,0.9,1,-1
15,2,11,1,-1,1073,1,1,-1
16,2,11,1,-1,754,0.55,1,-1
17,2,11,1,-1,2217,0.55,1,-1
18,2,11,1,-1,886,0.85,1,-1
19,2,11,1,-1,869,1,1,-1
20,2,11,1,-1,642,0.85,1,-1
21,2,11,1,-1,1606,0.9,1,-1
22,2,11,1,-1,958,1,1,-1
23,2,11,1,-1,1064,0.6,1,-1
24,2,11,1,-1,605,0.85,1,-1
25,2,11,1,-1,1129,0.85,1,-1
26,2,11,1,-1,797,0.65,1,-1
27,2,11,1,-1,1340,0.65,0,-1
28,2,11,1,-1,1019,1,1,-1
29,2,11,1,-1,1816,0.5,1,-1
30,2,11,1,-1,1311,0.85,1,-1
1,3,11,1,-1,348,0.6,1,1
2,3,11,1,-1,526,0.85,1,1
3,3,11,1,-1,367,0.85,1,1
4,3,11,1,-1,413,0.95,1,1
5,3,11,1,-1,501,1,1,1
6,3,11,1,-1,435,0.9,1,1
7,3,11,1,-1,498,1,1,1
8,3,11,1,-1,464,0.95,1,1
9,3,11,1,-1,439,0.75,1,1
10,3,11,1,-1,557,0.95,1,1
11,3,11,1,-1,691,0.9,1,1
12,3,11,1,-1,396,0.6,1,1
13,3,11,1,-1,1166,0.9,1,-1
14,3,11,1,-1,932,0.85,1,-1
15,3,11,1,-1,999,1,1,-1
16,3,11,1,-1,779,0.55,1,-1
17,3,11,1,-1,958,0.9,1,-1
18,3,11,1,-1,855,0.75,1,-1
19,3,11,1,-1,615,0.95,1,-1
20,3,11,1,-1,1236,0.7,1,-1
21,3,11,1,-1,1087,0.8,1,-1
22,3,11,1,-1,797,1,1,-1
23,3,11,1,-1,655,0.5,0,-1
24,3,11,1,-1,546,1,1,-1
25,3,11,1,-1,1283,0.8,1,-1
26,3,11,1,-1,594,1,1,-1
27,3,11,1,-1,949,0.85,1,-1
28,3,11,1,-1,792,0.85,1,-1
29,3,11,1,-1,1587,0.5,1,-1
30,3,11,1,-1,672,0.9,1,-1
1,1,12,-1,1,529,0.65,1,1
2,1,12,-1,1,462,0.85,1,1
3,1,12,-1,1,426,1,1,1
4,1,12,-1,1,420,0.9,0,1
5,1,12,-1,1,647,0.7,1,1
6,1,12,-1,1,429,1,1,1
7,1,12,-1,1,415,0.6,1,1
8,1,12,-1,1,296,0.8,1,1
9,1,12,-1,1,594,0.7,1,1
10,1,12,-1,1,422,1,1,1
11,1,12,-1,1,600,0.95,1,1
12,1,12,-1,1,436,0.7,1,1
13,1,12,-1,1,826,0.9,0,-1
14,1,12,-1,1,1177,1,0,-1
15,1,12,-1,1,1767,0.7,0,-1
16,1,12,-1,1,679,1,0,-1
17,1,12,-1,1,908,0.8,1,-1
18,1,12,-1,1,633,0.9,0,-1
19,1,12,-1,1,2519,0.9,1,-1
20,1,12,-1,1,828,0.85,1,-1
21,1,12,-1,1,684,1,1,-1
22,1,12,-1,1,794,1,1,-1
23,1,12,-1,1,1392,0.75,1,-1
24,1,12,-1,1,625,0.6,0,-1
25,1,12,-1,1,1120,0.9,0,-1
26,1,12,-1,1,1109,0.85,1,-1
27,1,12,-1,1,1343,0.9,1,-1
28,1,12,-1,1,1570,0.6,1,-1
29,1,12,-1,1,659,0.95,1,-1
30,1,12,-1,1,1184,0.9,0,-1
1,2,12,-1,1,385,0.6,1,1
2,2,12,-1,1,528,0.75,0,1
3,2,12,-1,1,417,0.85,1,1
4,2,12,-1,1,559,1,1,1
5,2,12,-1,1,424,0.9,1,1
6,2,12,-1,1,333,0.9,1,1
7,2,12,-1,1,435,1,1,1
8,2,12,-1,1,382,1,1,1
9,2,12,-1,1,585,0.8,1,1
10,2,12,-1,1,405,1,1,1
